Time_us,Accel_X,Accel_Y,Accel_Z,Gyro_X,Gyro_Y,Gyro_Z
549151978,1476,-252,17888,-377,2196,3871
549153948,2376,-248,17112,-943,7590,3980
549155703,1648,-380,18044,1224,4470,3536
549157399,2104,-216,17204,1365,3015,3392
549159143,1636,-272,17108,-11,2271,3640
549160957,952,320,16100,-287,-298,3591
549162709,1240,-112,16840,-220,-383,-228
549164423,1560,-176,16124,-230,-222,-1020
549166109,1560,-96,15732,-183,-136,-487
549167768,260,780,15828,-335,-189,-431
549169461,-24,556,16108,-389,-151,-427
549171125,432,740,15264,-331,-12,-386
549172837,256,608,16036,-197,45,-364
549174571,16,1640,16696,-275,136,-247
549176331,436,1220,17380,-244,152,-188
549178121,1236,1012,17884,-85,102,-63
549179841,1616,408,16696,-61,-41,-94
549181512,2156,292,16736,-139,-103,-161
549183178,1460,780,17760,-255,7,-64
549184843,1876,664,16364,-124,-100,-5
549186528,1288,-80,17764,-60,-193,-53
549188223,2036,80,15940,-81,-164,-53
549189915,728,-172,16860,-117,19,-27
549191609,196,-816,15884,-73,-26,-36
549193303,464,-644,15268,-88,59,-46
549194997,100,-440,16656,-175,260,-120
549196693,1284,324,15252,-222,296,-41
549198388,632,84,17504,-166,263,-39
549200082,1696,-24,15864,-89,162,-72
549201772,1216,204,15584,-143,208,-162
549203464,1304,380,15904,-180,301,-173
549205266,856,744,17412,-179,112,-90
549206976,440,532,17624,-48,49,-109
549208690,1040,244,16556,-44,184,-118
549210400,1280,756,17328,-101,-1,-128
549212111,540,368,17660,-143,-1,-97
549213822,616,196,16380,-16,8,-64
549215614,460,184,17012,-66,-143,-57
549217417,948,284,16416,-145,-93,-40
549219330,560,40,16592,-170,-71,42
549221116,152,432,16168,-38,-114,29
549222846,40,100,15564,-208,-33,2
549224604,560,600,16004,-272,61,91
549226384,-160,680,17636,-200,44,168
549228094,140,384,16220,-51,34,132
549229873,540,-56,15912,-195,8,29
549231661,240,340,17032,-229,174,27
549233444,540,0,16884,-132,243,57
549235138,844,-84,16032,-70,-63,21
549236851,1380,-44,16200,-254,49,-111
549238538,1576,-72,17220,-207,144,-168
549240226,1056,-164,18444,-127,-92,-165
549241902,1800,-404,15740,-129,-223,-272
549243584,1704,-852,15764,-280,49,-427
549245304,744,-108,16928,-299,8,-424
549247055,-396,-148,16772,-240,-221,-383
549248808,120,-216,15680,-250,74,-436
549250519,948,108,16720,-292,-4,-497
549252230,416,792,16612,-302,-89,-473
549253936,528,708,17828,-236,20,-384
549255644,1156,472,17060,-232,23,-372
549257388,1336,288,16776,-223,-70,-423
549259133,852,1280,16876,-273,-39,-363
549260906,1112,1016,17668,-216,-156,-228
549262655,2028,284,15960,-141,-91,-209
549264383,2312,476,15972,-165,-35,-229
549266215,1180,892,16216,-246,-100,-185
549268254,636,548,17000,-195,-134,-56
549270014,724,72,16132,-174,93,-74
549271762,900,728,15516,-281,89,-108
549273424,124,1080,16716,-314,156,-23
549275080,1120,704,16956,-118,213,91
549276736,1456,-192,15636,-81,158,19
549278450,1504,-76,16332,-152,154,-43
549280179,652,752,16076,-232,375,84
549281918,1048,-176,17272,-31,273,112
549283628,956,-112,15756,-68,235,-10
549285343,1060,212,15996,-147,340,-66
549287056,580,516,18432,-206,440,9
549288791,1300,324,18096,11,154,80
549290498,2320,-108,15404,10,93,71
549292209,896,-600,15156,-104,238,-41
549293919,76,1084,17196,-184,534,-11
549295626,-764,472,18324,-33,17,161
549297336,144,348,15880,-35,-44,171
549299111,416,228,16600,-109,380,108
549300812,748,696,17456,-148,176,152
549302506,620,-180,16912,-91,158,160
549304202,436,16,16604,-26,203,128
549305893,884,-320,16992,-7,259,108
549307585,1156,424,15516,-184,177,67
549309335,1344,-100,16288,-205,322,84
549311069,900,-288,16072,-34,178,95
549312813,744,-408,15788,-152,286,-40
549314536,-268,672,17116,-298,194,-32
549316251,32,304,17500,-280,284,-34
549318111,652,-20,15388,-133,377,-62
549319957,1032,-260,16820,-165,274,-164
549321736,32,752,17256,-181,139,-140
549323423,504,432,17524,-127,252,-66
549325620,848,208,16384,-126,115,-58
549327286,1104,4,16448,-164,4,-118
549328968,-8,852,17556,-201,154,-82
549330754,1260,396,16168,-113,150,-4
549332465,720,320,17452,-112,-9,10
549334161,768,156,16284,-144,-63,-92
549335851,-328,320,16952,-133,245,-55
549337533,600,-120,15728,-125,5,1
549339255,256,-280,15536,-156,137,-96
549340968,724,-204,16444,-190,173,-207
549342750,352,324,17788,-112,161,-157
549344532,1748,-180,16368,-168,38,-172
549346289,2092,-432,16496,-212,82,-240
549348102,1224,256,16784,-251,234,-321
549349852,652,840,16752,-187,-35,-235
549351660,928,32,17560,-247,50,-218
549353358,1704,108,17108,-258,44,-282
549355051,208,472,16668,-231,148,-311
549356754,76,788,15904,-224,43,-168
549358451,72,732,15928,-277,93,-61
549360165,184,364,16776,-230,188,-83
549361880,364,652,15448,-165,323,-81
549363601,584,984,16472,-194,162,-21
549365329,1312,388,15856,-223,231,-11
549367086,1760,440,16480,-122,312,-74
549368880,1452,-44,16692,-128,296,-68
549370608,1908,-72,16372,-206,181,-69
549372330,1836,228,17084,-239,256,-56
549374014,1984,200,17320,-168,224,-80
549375676,1244,-36,17208,-154,90,-107
549377349,836,668,17516,-150,-10,-94
549379021,840,164,17928,-57,120,-6
549380682,1012,232,16688,-36,54,-34
549382345,228,204,16620,-78,2,-30
549384072,120,484,16056,-112,224,67
549385778,796,584,16480,-60,157,191
549387480,1068,808,16456,-43,110,162
549389197,1172,516,15788,-53,231,127
549390910,112,928,17104,30,297,202
549392618,144,-352,17528,82,147,237
549394323,628,-364,15848,87,187,195
549396076,460,-248,17580,-23,465,141
549397836,584,-220,17860,57,217,194
549399546,2000,-472,17968,105,104,160
549401252,2636,-456,17256,139,36,86
549402997,1556,-420,17380,73,146,-5
549404717,800,380,17040,93,-27,-7
549406428,1600,232,17132,134,-60,30
549408133,1064,-168,16120,123,99,0
549409842,372,216,15832,118,130,-33
549411549,96,688,16284,132,-83,59
549413256,552,116,15928,152,49,78
549414970,-144,456,16312,97,259,-6
549416686,-444,748,16220,113,163,-15
549418393,-448,484,16632,118,182,-2
549420182,796,-164,17080,227,157,1
549421962,1480,-364,16384,243,144,-55
549423791,760,-360,17524,109,-93,-145
549425471,1116,-268,16892,81,-55,-106
549427124,1064,-264,17540,141,-46,-126
549428772,616,128,17564,120,-42,-209
549430422,400,480,17240,85,-81,-286
549432072,260,1008,17460,105,-275,-299
549433760,808,924,16808,323,-174,-195
549435450,-60,656,16484,171,-205,-224
549437161,-1128,616,16764,72,-290,-263
549438868,-372,324,15592,85,22,-214
549440577,188,252,14904,260,66,-67
549442283,-396,124,15676,199,88,-34
549444061,48,76,15836,61,23,-38
549445774,912,-268,16716,128,64,29
549447480,1184,32,16316,198,-8,24
549449186,1176,20,16288,117,-14,-25
549450890,768,216,17712,-16,-10,-77
549452597,1356,604,18516,132,-37,-58
549454325,2052,620,17648,259,-127,-51
549456055,1552,716,16744,196,-211,5
549457860,332,832,16012,14,-79,2
549459695,704,972,16592,181,-161,123
549461526,480,580,16216,320,-186,222
549463369,856,268,14524,236,45,199
549465201,348,292,15820,74,135,178
549467040,900,128,17168,182,46,198
549468738,1340,-164,15996,261,176,171
549470406,940,-176,16396,173,226,144
549472070,964,44,16676,8,195,81
549473735,2232,-148,16304,76,102,-4
549475402,2116,-428,17340,137,128,-10
549477085,2560,-312,16736,154,239,-117
549478780,2448,16,16700,70,85,-190
549480473,2252,-352,17224,108,-76,-210
549482164,2192,-304,16392,182,48,-230
549483856,856,216,15988,158,65,-247
549485553,-516,684,17132,-65,-22,-244
549487251,360,524,16044,-74,-17,-223
549488961,920,192,17420,239,232,-133
549490670,1264,404,15968,256,167,-124
549492378,608,304,16160,141,89,-112
549494089,860,264,16732,46,319,-135
549495876,1768,-24,16200,297,238,-143
549498358,1652,-16,15972,235,284,-129
549500092,1180,72,17336,79,354,-137
549501786,1316,-20,16456,216,209,-101
549503476,1756,-48,16468,290,293,-119
549505200,912,200,17504,217,241,-141
549506944,988,400,16544,96,237,-155
549508642,1876,24,16752,189,166,-203
549510346,1500,260,17172,292,137,-226
549512072,1388,360,15012,276,164,-233
549513779,176,228,16044,169,247,-256
549515490,-288,64,16864,185,279,-318
549517260,-176,328,16916,292,257,-312
549519019,-544,968,16748,288,429,-267
549520892,-256,340,16572,156,461,-230
549522769,724,172,16840,193,232,-250
549524661,764,424,16956,294,195,-187
549526460,-180,680,17084,157,212,-134
549528265,580,544,16164,69,143,-115
549529927,740,400,18152,51,-99,-159
549531575,1488,728,16688,200,86,-106
549533220,1368,656,17292,199,-34,-52
549534863,272,288,16436,23,-248,-86
549536513,16,-336,16032,-70,-104,-113
549538198,-1108,324,17612,6,-102,-80
549539886,-580,320,16512,88,-41,30
549541599,-604,336,15028,-69,-52,76
549543315,-1300,464,16504,-99,46,80
549545026,312,504,16176,97,97,167
549546731,344,568,16428,115,13,101
549548513,-436,600,16748,-28,124,53
549550223,380,32,16448,-12,142,10
549551929,604,276,18328,123,-27,-28
549553639,1524,-104,17300,152,55,-70
549555346,1452,-132,17304,68,6,-86
549557056,976,-72,17824,-15,-134,-135
549558794,1688,100,16524,-54,-221,-194
549560541,1764,72,16680,-42,-221,-207
549562302,1044,336,16408,-66,-134,-225
549564097,992,-128,16220,-154,-256,-273
549565835,988,416,16892,-200,-307,-340
549567565,812,348,16500,-158,-113,-386
549569455,636,604,16076,-192,-70,-323
549571176,472,724,16808,-257,-213,-322
549572830,1372,928,16188,-262,-100,-286
549574483,1964,792,16188,-218,-3,-266
549576139,1144,1144,17088,-201,-67,-264
549577797,948,1072,16272,-217,-76,-180
549579455,1064,732,15984,-197,154,-117
549581185,56,588,16884,-124,166,-61
549582917,812,-56,16220,-137,-66,95
549584636,184,56,17524,-138,-5,106
549586353,984,-128,16356,-165,38,103
549588101,1536,-120,16808,-166,-39,165
549589850,1340,-88,17612,-107,-21,118
549591563,1328,-328,16584,-60,78,116
549593273,1296,4,16564,-41,34,68
549594991,1572,-272,15932,8,26,-39
549596704,1016,-268,16004,-6,186,-30
549598415,256,8,17392,4,216,-65
549600153,992,-216,16720,47,141,-81
549601868,1476,192,15684,-32,133,-137
549603569,1236,564,16912,-56,205,-96
549605265,780,392,17152,-26,214,-73
549606962,1260,500,15652,-8,31,-133
549608656,1400,692,17100,-75,34,-186
549610420,1496,708,16904,-83,115,-97
549612134,1212,624,16848,-35,53,-116
549613870,1048,620,16260,-57,-20,-130
549615592,1040,208,16912,-147,33,-115
549617315,428,676,16820,-162,5,-96
549619031,-464,680,17856,-146,73,-22
549620813,792,608,16116,-160,-9,-28
549622538,1520,180,15984,-194,69,-92
549624237,696,1020,16828,-197,127,-66
549625922,768,240,16748,-171,-48,12
549627595,700,132,15740,-143,-30,25
549629253,208,-20,16192,-159,76,28
549630978,324,368,16020,-138,-17,-3
549632655,-456,16,17744,-194,37,60
549634336,228,4,16536,-148,3,25
549636036,524,-244,16644,-96,48,-3
549637724,484,104,16688,-172,4,-108
549639408,236,-484,17520,-169,53,-112
549641144,-76,-200,17360,-126,-84,-122
549642847,308,-556,16976,-87,88,-198
549644569,868,-72,16336,-190,-2,-276
549646283,112,240,17140,-194,27,-238
549647999,1228,-268,15876,-90,-31,-200
549649769,944,-192,16084,-139,-88,-252
549651570,272,772,16508,-249,-136,-255
549653315,68,960,16352,-304,-61,-196
549655018,400,816,17148,-194,-143,-129
549656711,800,160,16928,-150,-155,-214
549658405,748,392,15748,-273,-66,-259
549660102,304,636,16296,-289,52,-183
549661829,768,100,16228,-197,-150,-116
549663581,824,-4,16412,-177,-125,-179
549665325,1284,164,15796,-232,-36,-223
549667044,648,256,17024,-263,78,-234
549668822,1868,316,16632,-225,1,-208
549671351,2260,-196,15472,-195,100,-273
549673064,1376,304,15628,-263,16,-272
549674735,452,928,17620,-328,-33,-249
549676394,1392,692,16644,-232,58,-163
549678049,1328,684,17284,-174,10,-176
549679703,712,884,16804,-153,73,-155
549681359,636,728,17504,-192,-22,-125
549683062,1336,980,17172,-168,69,30
549684754,2304,-224,15868,-28,80,51
549686465,1040,-244,15868,-145,70,-75
549688178,532,164,16060,-227,103,-96
549689883,1816,60,16024,-261,213,61
549691590,2148,-476,16764,-24,131,-42
549693363,1360,-396,15876,-86,320,-175
549695065,628,-780,17064,-160,184,-242
549696760,1028,-472,16392,-161,423,-274
549698453,1632,-416,16860,-61,355,-356
549700146,1376,-40,16784,-71,349,-382
549701836,928,580,17128,-132,210,-446
549703585,1280,500,17236,-162,208,-340
549705288,2200,128,16636,-112,160,-342
549706997,468,812,16916,-108,112,-371
549708707,-208,1440,17436,-152,85,-265
549710412,804,1140,16068,-180,84,-106
549712121,908,1000,17132,-135,46,-89
549713862,616,1128,16128,-102,134,14
549715572,0,1000,15248,-115,40,129
549717285,-436,824,15348,-165,122,158
549718991,152,548,16524,-139,90,180
549720697,-44,256,16748,-81,245,245
549722448,288,-124,16516,-54,252,221
549724226,1056,-464,16028,-153,219,181
549725982,956,-228,16824,-137,137,75
549727671,196,-400,17592,-93,400,80
549729323,56,-464,17580,-87,154,72
549730972,276,-676,17392,-213,132,-81
549732618,964,-196,16904,-226,242,-200
549734322,924,40,16988,-144,301,-185
549736063,600,-256,17144,-63,-46,-193
549737841,188,-44,16632,-209,54,-272
549739591,164,940,16664,-226,80,-215
549741298,-112,788,17072,-172,51,-145
549743038,372,472,16480,-99,-77,-144
549744863,512,168,16368,-197,33,-217
549746566,708,416,16120,-197,3,-208
549748254,-36,516,16816,-187,24,-155
549749947,736,176,15732,-106,-19,-145
549751639,1020,-272,16272,-186,136,-181
549753326,1224,56,16288,-207,121,-228
549755016,680,420,16996,-205,44,-203
549756720,1492,204,16296,-198,41,-151
549758427,1800,24,16340,-235,182,-277
549760147,904,516,17328,-272,4,-301
549761898,428,604,17208,-240,54,-201
549763631,1732,184,15340,-187,235,-123
549765367,1816,108,16520,-209,79,-178
549767196,1084,384,16540,-230,46,-212
549769046,892,516,17028,-233,170,-115
549770813,1272,308,16644,-160,89,-14
549772524,1812,64,15792,-196,43,-135
549774266,1116,312,15856,-272,192,-145
549776080,756,704,17316,-211,171,-101
549777875,1528,276,16648,-172,130,-84
549779593,1876,-8,16164,-164,241,-181
549781268,1360,88,16120,-161,370,-180
549782952,644,140,17220,-121,214,-144
549784688,1068,292,16292,-118,252,-103
549786443,1192,-60,16220,-120,415,-151
549788151,344,248,16360,-131,475,-174
549789827,632,608,16424,-155,278,-109
549791565,1300,-172,17280,-114,279,-73
549793334,776,92,16912,-49,424,-141
549795084,1064,-204,15784,-69,416,-148
549796791,244,176,17136,-200,93,-48
549798466,440,180,17868,-157,350,-58
549800140,1724,168,17240,-87,297,-39
549801811,452,456,17664,-130,195,-131
549803490,368,492,16700,-167,145,-131
549805163,344,640,17276,-124,184,-85
549806902,764,200,17012,6,274,-64
549808679,236,12,15992,-54,198,-146
549810501,-364,284,16892,-93,143,-162
549812343,-588,312,17748,28,157,-168
549814180,848,248,15488,22,226,-99
549815945,-136,248,17448,-43,167,-82
549817795,40,-140,17108,-79,180,-109
549819483,696,-84,16776,-61,98,-174
549821145,760,780,17076,-59,62,-151
549822803,252,416,17776,-79,100,-54
549824463,832,328,17152,8,20,-29
549826174,1028,-36,18204,42,-166,-61
549827972,936,396,16828,78,-157,-104
549829764,476,-68,16632,-10,-24,-41
549831427,604,-192,16348,15,-190,-90
549833079,564,-28,16760,29,-142,-133
549834738,872,436,15408,97,7,-114
549836391,244,-388,16140,115,50,-97
549838083,-16,-92,15716,72,-35,-128
549839778,52,-224,16896,69,-124,-182
549841492,-80,348,17460,103,123,-114
549844052,640,244,17008,119,129,-51
549845777,2156,-32,16544,40,34,-160
549847500,2308,336,17092,85,-78,-181
549849212,1664,748,16720,136,-11,-140
549850912,1424,448,17104,92,-173,-48
549852607,1900,560,16836,57,-348,-30
549854300,1760,496,16600,88,-163,-57
549855998,1336,696,16356,106,-164,-9
549857725,-176,512,16728,38,-159,38
549859480,356,-152,15644,28,16,1
549861187,-512,196,16832,73,-76,-12
549862917,-692,672,16156,104,206,65
549864648,552,60,14844,26,191,101
549866370,1088,-240,16032,51,285,38
549868175,1640,-280,15948,125,351,16
549870073,1576,44,16988,127,137,-5
549871784,812,492,17832,74,213,72
549873461,2216,-232,16872,100,274,28
549875132,1448,-168,18476,70,-48,-23
549876803,1264,852,18476,66,-4,-24
549878474,1460,300,16860,44,-12,29
549880196,916,552,17440,57,-107,34
549881893,1532,48,17380,146,-120,-35
549883604,1320,180,15780,181,-95,-107
549885314,-224,116,16080,163,36,-49
549887023,372,-496,14728,154,140,-68
549888732,108,-644,16040,181,-22,-170
549890464,-112,704,16336,178,339,-182
549892180,1092,232,15188,192,419,-136
549893892,380,376,17688,148,224,-138
549895603,1836,20,16336,156,296,-201
549897314,1872,284,15872,222,343,-264
549899023,400,1260,17500,212,281,-202
549900796,896,584,16596,119,148,-28
549902495,1008,380,17584,139,99,-76
549904191,1208,384,16524,225,122,-75
549905882,1436,608,15916,248,-97,41
549907573,-668,828,17572,158,-30,102
549909265,608,-12,16900,194,121,124
549911013,-144,-84,17772,210,-124,78
549912717,-300,552,16900,209,35,112
549914431,796,-476,14492,113,278,130
549916147,-612,-196,16984,83,162,93
549917856,-176,-152,16396,91,159,-2
549919567,20,108,16244,143,111,-31
549921288,-140,404,17720,197,312,-30
549922964,928,384,16532,202,224,-9
549924619,1104,-300,18860,224,-110,-175
549926327,932,312,18212,284,39,-208
549928049,1984,228,16100,260,-12,-136
549929737,388,280,17288,83,-105,-104
549931442,912,268,17944,44,-238,-186
549933102,1108,504,17180,119,-150,-179
549934782,884,828,17500,261,-138,-2
549936453,896,648,15388,113,-330,-9
549938116,540,44,17180,49,-261,-45
549939774,336,424,16040,132,48,-81
549941494,456,392,15504,182,-16,-10
549943226,-124,748,15728,17,0,-16
549945102,868,540,15100,14,229,-46
549946841,864,296,16672,216,157,-32
549948575,492,160,17276,189,140,52
549950304,820,360,15980,61,233,42
549952164,1136,76,16940,44,244,14
549953915,1644,208,17736,164,200,-16
549955635,2504,212,16648,89,158,-20
549957353,1800,456,17480,43,-68,-79
549959062,2476,100,15828,88,90,-108
549960759,1540,-200,15928,78,-76,-195
549962503,244,556,17476,93,-84,-129
549964236,-204,128,16744,72,200,-109
549965935,184,-388,16588,97,24,-138
549967662,272,224,16600,64,96,-228
549969390,1604,180,15060,70,387,-150
549971149,-284,308,17436,94,261,-139
549972911,564,416,16068,91,186,-149
549974603,1432,164,15576,88,133,-197
549976276,1084,420,16816,102,303,-167
549977955,1172,264,16028,104,299,-171
549979624,992,152,17704,59,42,-214
549981282,1472,-200,17784,132,173,-308
549982997,2248,132,16896,164,127,-282
549984710,764,316,17420,90,-23,-226
549986431,976,-12,16676,29,18,-300
549988143,784,88,18152,21,-48,-299
549989854,800,800,16624,138,45,-323
549991563,1176,412,15712,94,126,-298
549993298,488,376,16340,54,-28,-299
549995032,1224,4,14972,100,284,-322
549996764,848,124,15464,161,134,-366
549998477,-796,1052,16740,73,127,-223
550000190,0,652,15176,36,244,-183
550001902,4,444,17796,97,312,-87
550003684,996,376,16540,107,186,-113
550005391,1468,964,15208,-20,340,-26
550007094,76,900,17872,7,368,18
550008789,1444,352,16048,70,141,41
550010478,1244,4,16948,56,-60,-16
550012194,1676,280,16488,30,122,9
550013906,1376,-328,16604,45,-14,26
550016870,1756,-608,16156,-1,-83,-113
550018692,1212,-40,17308,-10,-81,-175
550020428,720,216,17436,-17,-17,-162
550022148,448,-36,17392,-59,-247,-195
550023953,256,-88,16784,-67,-38,-283
550025671,504,232,15808,-12,166,-318
550027337,-216,592,16228,-41,-84,-202
550029020,-496,504,16124,-55,18,-220
550030692,728,152,14892,-21,158,-242
550032351,164,1080,16804,-121,-103,-208
550034068,596,1268,15688,-158,11,-137
550035749,192,912,18044,-70,-10,-12
550037433,780,604,16824,-2,-52,-17
550039114,964,176,16372,-75,-178,-54
550040797,140,688,17900,-177,-142,-45
550042477,472,192,17536,-107,-38,15
550044158,548,348,17532,-105,-245,25
550045869,656,216,17620,-202,-278,-95
550047589,1412,404,16132,-276,-124,-86
550049306,1120,-184,17264,-191,-220,-10
550051015,788,-324,15992,-138,-252,-107
550052722,876,-512,15668,-209,-225,-226
550054456,0,376,16052,-317,-42,-253
550056179,-24,464,16912,-175,-2,-201
550057899,36,440,16680,-142,-151,-174
550059611,444,332,16412,-194,83,-250
550061321,1148,484,15936,-254,125,-246
550063055,400,1028,17624,-249,25,-204
550064965,820,368,17644,-129,-105,-159
550066688,1576,204,16372,-121,-6,-184
550068404,1884,288,16512,-211,-45,-251
550070114,1252,296,16972,-251,-115,-219
550071892,1388,124,17136,-125,-210,-136
550073643,1404,-464,16276,-106,-88,-241
550075352,1140,-176,17044,-282,-159,-328
550077029,1576,368,15964,-322,-80,-314
550078689,976,416,17392,-187,-21,-214
550080346,1204,256,15936,-97,47,-236
550082002,932,-24,16384,-120,-4,-307
550083657,244,640,16972,-262,87,-296
550085358,744,912,16216,-124,202,-165
550087060,872,736,16948,-47,165,-75
550088776,1416,8,15284,-56,115,-147
550090488,836,792,16100,-232,216,-172
550092198,380,792,18272,-135,203,-31
550093956,1436,540,17148,-40,80,3
550095757,856,296,16908,-41,-1,-23
550097575,860,260,16740,-155,303,-57
550099337,992,-44,16544,-126,28,-18
550101057,260,364,17788,-88,-64,25
550102851,1700,-672,15988,-125,127,-4
550104731,1204,80,16492,-167,-36,-110
550106602,416,456,17972,-214,-80,-85
550108384,1560,108,15628,-118,150,-37
550110078,180,-92,17836,-73,58,-69
550111755,240,164,15540,-106,64,-175
550113440,380,116,15452,-191,129,-168
550115114,-560,804,17484,-156,184,-66
550116790,800,-124,15588,-16,156,-6
550118524,532,308,15512,-143,65,-142
550120242,-392,580,17864,-249,207,-88
550121948,-180,844,17108,-208,141,-25
550123641,468,700,17684,-89,40,64
550125328,1244,56,16768,-93,110,-67
550127033,420,316,17988,-172,-36,-52
550128732,52,616,17932,-126,-35,1
550130414,1272,-316,16360,-138,-27,23
550132076,612,-160,17352,-146,-134,-34
550133726,120,376,16924,-285,-1,-24
550135384,568,644,16440,-237,-73,67
550137101,1208,428,16316,-187,-82,79
550138790,1592,-272,15816,-149,-96,8
550140485,344,312,15852,-184,32,-42
550142179,-232,1112,16816,-212,-117,-19
550143881,864,488,15596,-187,-9,13
550145591,944,72,16492,-105,138,-28
550147360,364,648,16492,-111,230,-76
550149086,564,204,17136,-171,32,-66
550150809,1156,176,16356,-214,96,-36
550152521,1508,-268,17156,-125,110,-78
550154230,768,300,16060,-188,71,-61
550155953,892,48,17200,-232,2,-116
550157788,1776,220,16764,-273,29,-84
550159500,2304,-116,17104,-136,-12,-176
550161198,1640,120,15852,-177,-61,-238
550162900,1020,64,16960,-243,-87,-208
550164613,1324,580,15836,-287,22,-187
550166324,1456,44,16544,-182,-92,-242
550168059,1204,176,15436,-169,-17,-268
550169755,-68,300,16364,-213,102,-292
550171438,488,596,15772,-233,221,-203
550173186,768,268,16748,-168,184,-194
550174909,436,196,16952,-166,115,-218
550176594,-152,656,17120,-187,352,-191
550178303,1748,724,15624,-241,228,-146
550179981,1004,884,17556,-248,128,-168
550181684,1532,608,17048,-154,257,-162
550183358,1192,332,17340,3,144,-196
550185036,1160,812,16956,-33,71,-213
550186717,1924,-104,15920,-123,50,-315
550189044,212,496,16980,-152,245,-273
550190753,-396,-60,17776,-135,199,-152
550192468,516,-200,15712,-201,58,-96
550194176,676,532,15496,-247,154,16
550195895,1028,88,15384,-216,399,82
550197616,-4,44,16232,-213,144,97
550199400,-8,172,15388,-263,284,115
550201105,1280,-532,15764,-296,474,115
550202804,1724,540,16104,-233,443,151
550204498,1560,348,17756,-110,377,126
550206210,2848,-192,16208,-153,273,47
550207916,1856,-600,17732,-161,256,-30
550209674,1448,-420,17632,-114,285,-113
550211379,1620,-576,17788,-69,94,-97
550213090,1300,-436,17380,-106,13,-157
550214857,1748,-628,16248,-116,227,-277
550216674,1372,760,15336,-116,89,-260
550218474,-552,728,16900,-83,268,-160
550220312,4,344,16476,-20,401,-125
550222005,-240,500,17672,-57,134,-149
550223689,80,816,15832,-93,282,-102
550225368,220,244,17104,-68,422,4
550227043,256,508,16556,-70,293,76
550228723,312,292,16900,-249,326,-6
550230453,656,1172,17076,-285,352,-18
550232162,1044,264,17784,-122,245,49
550233890,1424,288,16368,-92,198,26
550235611,2028,-796,16856,-201,115,-211
550237326,1048,-256,16588,-260,63,-278
550239051,1084,-232,16056,-216,280,-260
550240834,352,56,16628,-186,-3,-265
550242542,12,92,18116,-249,-26,-346
550244259,348,980,16988,-221,147,-336
550245970,-496,1052,17772,-101,-11,-205
550247670,-924,848,17044,-27,-86,-77
550249365,20,48,15852,-115,104,-174
550251124,-76,384,15876,-132,193,-115
550252836,-620,544,17228,-72,149,-32
550254557,1192,-120,16104,10,47,9
550256275,1828,-584,16804,-28,65,-90
550257991,2320,-432,16528,-68,104,-104
550259703,1432,-276,17372,-92,-72,-220
550261442,1320,-56,16668,-4,-69,-173
550263160,1512,-852,16728,6,35,-355
550264909,1512,-108,16840,-43,-46,-429
550266655,608,104,17028,-53,-47,-414
550268377,968,528,16256,43,10,-301
550270091,1112,328,15764,55,-22,-323
550271869,540,524,16244,-22,43,-344
550273605,-460,1000,15940,-89,27,-238
550275282,-644,1160,15692,63,123,-35
550276944,696,988,15960,81,190,42
550278602,1156,1212,15844,-44,73,17
550280255,800,1388,17664,-83,152,139
550281961,1528,988,16424,49,173,245
550283642,1408,-32,17712,116,28,295
550285344,1384,-116,16872,12,8,103
550287043,1220,-560,16412,-45,109,53
550288742,256,-784,17948,50,228,64
550290436,1616,-388,16052,131,66,68
550292159,2352,-556,16448,43,124,2
550293889,2476,-708,15724,45,351,-91
550295609,2160,-320,16152,50,-119,-188
550297326,816,132,17336,134,-75,-97
550299042,2180,-200,15548,144,105,-88
550300758,508,36,17072,92,25,-165
550302503,-220,556,17016,29,91,-200
550304220,380,1076,15880,179,125,-85
550305931,432,720,17644,250,170,63
550307665,1076,224,15032,174,260,9
550309397,116,284,16228,77,-29,-67
550311113,-760,360,18412,181,112,66
550312902,1456,-100,15908,279,206,121
550314656,1100,40,17452,174,40,60
550316462,992,160,17400,31,6,-56
550318288,1140,572,16480,104,45,52
550320116,1032,-228,17472,190,-76,-21
550321868,1740,56,16024,109,-30,-77
550323668,672,-8,16952,-21,-102,-178
550325352,-168,264,17736,129,-49,-203
550327025,1136,352,15716,176,-39,-167
550328690,604,204,16804,136,-148,-161
550330353,-360,720,17288,30,18,-194
550332033,-220,776,17000,132,-14,-150
550333743,440,616,16432,236,-42,12
550335439,900,420,15660,141,7,-17
550337148,284,668,16548,90,-4,-12
550338855,744,684,16248,128,14,45
550340564,1192,400,16460,231,-132,145
550342271,1300,80,16396,117,-65,72
550344046,760,-260,17232,53,-82,16
550345769,924,-324,16396,85,-117,-61
550347481,1080,-708,16796,194,-100,-55
550349191,1408,-508,16216,196,123,-131
550350900,1248,-620,16816,112,-3,-236
550352606,596,-148,16524,-2,-154,-313
550354453,792,288,16496,106,58,-291
550356284,676,240,16616,214,-4,-287
550358125,704,556,16300,46,28,-351
550359917,532,940,16728,-13,-25,-347
550362656,1152,1608,16168,237,22,-83
550364442,1028,860,16804,134,-84,-13
550366155,268,972,17036,10,136,-5
550367830,280,736,17232,61,39,55
550369496,544,888,17124,208,-2,201
550371156,1516,252,15312,163,159,145
550372880,744,144,16732,88,188,131
550374620,836,-68,16480,16,133,58
550376306,1132,272,16984,125,0,40
550377997,2020,464,16108,147,237,93
550379671,2528,-132,15880,137,156,60
550381330,1200,160,17680,-11,-106,-28
550382994,2160,-216,15544,33,23,-52
550384724,1584,0,17620,199,96,-12
550386420,996,44,16812,185,31,5
550388142,1160,244,15816,35,70,-33
550389861,748,-60,17208,55,91,-59
550391575,1400,436,15548,232,148,22
550393321,1368,-64,15824,175,46,22
550395052,164,-288,16912,43,141,-97
550396755,716,40,15284,106,343,-88
550398452,772,-288,16848,302,199,5
550400149,544,-116,16688,220,210,-105
550401845,1116,244,15960,121,313,-133
550403539,36,-84,17096,133,503,-107
550405245,464,200,16264,248,460,-26
550406945,400,-184,17988,270,292,29
550408639,1260,-24,16604,151,495,-66
550410331,1108,476,16352,137,319,-70
550412062,1644,476,17064,191,151,43
550413817,1320,544,17408,189,158,69
550415603,1376,808,17040,220,127,34
550417339,1028,496,17056,111,17,9
550419054,1356,412,15980,131,84,2
550420764,812,268,17412,138,50,-5
550422455,804,292,15996,147,139,-91
550424142,408,212,16396,76,53,-162
550425894,128,500,17064,125,-5,-165
550427591,672,148,16944,251,161,-135
550429284,1160,-284,15696,162,85,-182
550430987,196,-360,16512,71,90,-232
550432691,180,152,15148,33,104,-272
550434388,464,420,17956,115,152,-207
550436090,296,1064,17788,11,-41,-257
550437786,1168,568,15872,-53,58,-264
550439480,284,428,18052,48,-11,-314
550441183,432,504,16676,189,18,-282
550442883,60,436,17052,128,-130,-282
550444579,-456,616,16900,-16,127,-274
550446395,236,-32,16936,-12,-25,-268
550448129,860,512,16324,38,-7,-234
550449847,1344,636,16576,69,12,-182
550451560,952,188,16520,1,-7,-106
550453315,360,292,17056,-39,-94,-180
550455040,552,540,16456,-3,-98,-242
550456792,984,592,16580,-15,-6,-223
550458506,1024,380,16556,-13,83,-160
550460219,888,88,17352,-31,-60,-207
550461926,1808,196,16580,-63,-158,-244
550463642,1100,544,17004,-98,-57,-236
550465383,624,952,16888,-42,30,-86
550467116,808,492,16272,-71,-187,-84
550468813,832,524,16604,-109,-88,-128
550470498,1508,396,15524,-32,34,-148
550472181,800,828,16472,-72,-96,-14
550473888,860,644,15976,-56,3,22
550475653,1220,312,15616,-69,43,74
550477477,572,564,17204,-75,-85,40
550479159,516,892,17044,-160,106,130
550480820,492,208,18024,-166,-31,125
550482479,1108,124,16768,-44,226,71
550484139,2528,-172,15404,-21,39,-27
550485794,1268,448,17360,-78,-44,-2
550487493,1436,-584,16996,-65,144,-11
550489196,1964,-740,14568,12,35,-38
550492099,1424,60,15316,-207,85,-189
550493948,388,88,17800,-111,176,-188
550495744,1324,-36,16288,-33,148,-205
550497483,1312,-468,15776,-8,-84,-229
550499210,164,576,17456,-140,147,-281
550500960,-292,712,17488,-103,273,-144
550502719,-212,868,18468,-99,-95,-86
550504453,652,624,17748,-83,77,-88
550506166,1732,1024,15780,-134,166,-81
550507840,836,1132,17200,-141,68,-18
550509566,600,268,16484,-110,48,17
550511236,280,-156,16152,-118,83,-48
550512909,156,124,16580,-89,187,-98
550514588,1320,148,15396,-144,225,-12
550516276,1056,-136,17200,-95,-84,-40
550517990,740,124,17516,-106,100,-142
550519794,2016,-372,15796,-102,95,-216
550521489,612,556,17492,-200,58,-162
550523165,140,740,17544,-130,-1,-145
550524836,812,640,16356,-123,-8,-127
550526512,736,196,17364,-116,-52,-183
550528180,616,644,16664,-194,-71,-127
550529889,396,872,18356,-164,-166,-19
550531591,1404,32,16192,-65,-40,28
550533307,756,-24,16380,-175,-223,-84
550535839,-132,548,16376,-313,-146,-46
550537570,-400,24,15848,-89,128,-83
550539288,-112,-800,16484,-34,152,-256
550540999,296,-448,15116,-179,49,-366
550542698,32,-240,15764,-235,288,-383
550544405,472,44,17760,-102,204,-369
550546115,1428,-188,17004,-140,49,-445
550547821,1264,492,17576,-172,-20,-488
550549520,900,1308,17644,-208,170,-381
550551282,1956,1012,16136,-136,-273,-220
550552997,1136,532,16752,-185,-281,-216
550554731,836,716,16312,-213,-130,-229
550556449,56,812,16500,-238,-272,-90
550558171,112,1416,16488,-278,-299,84
550559886,1088,584,16588,-218,-250,125
550561622,732,460,16456,-152,-196,51
550563351,-172,248,16508,-224,-59,5
550565107,1096,-148,15336,-273,-109,53
550566852,720,-228,16620,-228,-15,48
550568628,1472,-568,15296,-85,75,-90
550570353,820,-364,16964,-226,63,-148
550572094,1868,340,16052,-281,114,-144
550573771,2036,-176,17196,-238,222,-102
550575481,2228,228,16348,-100,43,-197
550577179,860,240,16956,-226,-118,-223
550578887,1508,492,15600,-313,26,-225
550580578,2020,276,17024,-255,53,-186
550582306,1404,496,17096,-160,-159,-194
550583970,656,568,16704,-198,-28,-178
550585659,992,924,16136,-210,22,-112
550587324,1632,-180,17708,-140,-31,-24
550588985,1388,220,15344,-102,-62,-94
550590647,400,-128,16028,-152,97,-138
550592356,432,148,15324,-186,219,-86
550594051,1076,-136,15972,-210,290,-99
550595764,1048,-384,17052,-147,274,-179
550597477,1180,-88,15928,-161,522,-245
550599184,1336,700,16196,-162,256,-209
550600893,2400,-52,15556,-222,394,-159
550602671,2204,-340,16996,-159,274,-257
550604389,900,-8,17608,-146,287,-308
550606107,1132,508,16596,-259,94,-257
550607813,1532,588,16152,-290,172,-204
550609506,1380,400,17516,-155,117,-227
550611237,144,592,16352,-100,184,-191
550612958,-288,1520,16032,-198,144,-90
550614659,0,928,16956,-204,169,-4
550616413,600,304,16432,-67,154,2
550618242,-448,512,16168,-77,225,3
550619972,-148,528,16616,-194,93,30
550621705,1092,76,15872,-265,172,79
550623485,1620,-368,15932,-151,233,-50
550625176,672,-196,17252,-197,241,-141
550626859,464,132,16980,-207,94,-158
550628544,1224,-480,17164,-155,218,-202
550630239,640,-424,17936,-57,87,-325
550631931,-92,-236,16808,-139,95,-374
550633681,-492,108,16784,-203,-36,-378
550635389,-708,624,17432,-252,252,-265
550637098,56,956,17172,-151,83,-197
550638811,-584,1256,17764,-148,-34,-165
550640520,-412,1480,16784,-165,-91,-109
550642225,492,640,16572,-152,9,-7
550643960,168,784,16912,-151,-117,64
550645704,-60,752,16284,-140,-56,115
550647417,100,340,16700,-181,-130,152
550649127,992,68,17716,-247,-127,96
550650836,2768,-112,16328,-195,-128,67
550652544,1232,-436,17096,-144,-77,-5
550654282,64,-272,17680,-112,-138,-167
550655993,1088,-92,16456,-211,-59,-289
550657724,1492,176,17092,-184,-109,-268
550659434,1232,-48,16620,-124,172,-280
550661141,1324,316,15284,-187,-87,-288
550662847,1060,484,15916,-240,-4,-261
550664568,1372,532,15116,-259,97,-123
550666305,316,632,15772,-182,154,3
550668068,148,1248,16480,-211,-115,112
550669822,1092,1084,15308,-246,129,135
550671543,1976,804,17140,-193,129,262
550673255,716,592,17700,-102,57,314
550674963,1484,360,15320,-107,132,247
550676686,1064,460,16716,-165,151,258
550678381,1460,-216,17508,-126,266,168
550680058,1456,-200,15816,-137,339,22
550681720,752,-32,17528,-139,219,-16
550683368,1560,48,16372,-157,432,29
550685012,2680,-668,15812,-30,278,-54
550686675,1468,-392,16820,-61,312,-110
550688346,1468,-412,15976,-146,300,-148
550690013,1240,-68,15512,-121,299,-78
550691684,1532,-252,15092,-94,422,-59
550693353,1016,408,15972,-243,278,-69
550695076,356,660,17980,-269,299,-27
550696778,1224,1164,16128,-202,461,26
550698490,1620,232,17272,-8,112,106
550700200,584,352,16284,-90,231,-28
550701911,236,376,17096,-125,414,-35
550703617,276,420,18088,-38,232,9
550705350,1328,-476,17572,68,195,-16
550708304,704,40,18268,-69,257,-141
550710055,916,268,15924,19,126,-63
550711765,900,-416,17364,39,123,-45
550713513,736,-144,16828,29,188,-135
550715252,684,64,15952,-68,217,-176
550716982,16,448,16944,-10,142,-156
550718790,1068,104,16888,50,156,-98
550720602,856,568,15688,27,68,-66
550722344,-252,680,17408,-80,66,-67
550724083,-320,820,17716,-30,-15,-21
550725870,840,300,16584,117,74,-7
550727558,208,188,16836,149,137,-36
550729237,-116,-240,17136,76,38,-94
550730938,-40,288,16760,93,-94,-66
550732635,684,-164,16588,132,48,-19
550734312,356,80,16504,128,56,-55
550736041,76,380,17424,41,-189,-105
550737788,336,556,17180,50,-117,-93
550739515,1564,300,16724,220,-140,-2
550741212,1008,140,16284,156,-314,-75
550742905,-328,0,16056,-10,-66,-105
550744609,-944,808,17084,33,-82,-20
550746349,168,540,17484,232,-274,163
550748098,948,656,16056,118,-50,169
550749797,484,784,17708,31,-158,180
550751497,752,1064,17332,123,-177,215
550753287,1668,356,16852,285,-255,295
550755110,1304,236,16100,166,-198,209
550756933,1092,516,16480,112,-66,134
550758678,1500,572,16908,123,-241,205
550760385,1848,-512,17696,233,-253,101
550762065,1800,-536,15516,106,-19,-42
550763729,1624,-316,15068,49,37,-66
550765479,80,52,17136,39,-8,-17
550767278,1200,-316,15208,160,41,-60
550768964,1180,44,15248,72,278,-166
550770637,652,416,15592,39,393,-191
550772311,792,708,15536,18,229,-13
550773983,1260,408,17144,129,218,105
550775653,1780,220,16100,142,360,84
550777345,1420,564,16768,19,68,86
550779039,1128,768,16832,-51,172,278
550780707,1504,172,17448,-17,212,305
550782366,1772,152,17704,93,65,199
550784046,1904,444,16988,47,140,87
550785701,1368,620,17724,92,-20,101
550787407,1028,-804,17468,142,57,41
550789100,1384,-1232,16040,202,135,-175
550790808,460,-552,16448,146,157,-277
550792519,392,-508,15596,111,239,-237
550794226,-20,-148,15652,126,199,-216
550795933,584,-196,18004,206,207,-331
550797646,1844,-40,16208,193,156,-340
550799359,456,940,17316,188,265,-261
550801066,740,496,16860,169,213,-114
550802818,1612,224,16708,105,20,-176
550804527,1108,804,17572,101,121,-198
550806235,1248,948,15896,140,264,-7
550807970,148,608,16600,115,-134,26
550809715,608,116,15564,130,-10,-25
550811426,784,-136,15216,127,100,-111
550813133,-296,312,17872,187,31,-56
550814849,120,-52,16148,118,176,-119
550816560,-140,0,17412,122,-6,-159
550818330,116,208,17316,198,256,-228
550820082,1400,308,14936,165,265,-154
550821796,676,320,16644,96,52,-131
550823502,888,296,16636,88,211,-168
550825188,1096,816,16064,205,41,-188
550826868,556,1156,18140,182,-50,57
550828613,796,732,16588,145,-58,81
550830299,128,216,17504,130,-97,65
550831990,-476,788,16908,200,-55,156
550833715,8,220,16588,219,-129,202
550835461,-568,-172,16872,101,86,245
550837261,780,-244,15984,95,79,235
550838994,1280,100,17216,226,-136,194
550840701,2432,-260,16012,248,55,163
550842442,2192,-160,15708,135,122,111
550844218,1372,8,17684,50,-70,-14
550846014,2336,356,16828,190,5,1
550847748,1940,-36,17616,241,-45,-20
550849523,1464,172,16076,161,125,-121
550851207,1164,648,15296,73,-96,-133
550852880,680,656,16604,226,42,15
550854550,1036,436,15616,259,223,47
550856222,8,752,15756,105,62,-16
550857892,-120,800,17104,68,162,90
550859607,96,968,17032,124,135,190
550861351,876,68,17144,248,250,257
550863062,1736,224,15936,69,133,113
550864783,1072,656,16980,-14,120,206
550866772,1116,248,17772,128,112,229
550868549,2384,-244,15876,149,119,171
550870264,1928,-28,17028,76,-62,9
550871987,728,-48,17432,24,159,-29
550873764,1508,-372,16316,81,138,-19
550875438,388,-264,17564,105,97,-165
550877108,812,-56,15752,47,150,-230
550878807,-52,916,16208,16,251,-105
550881101,48,540,17944,30,65,-98
550882778,1504,324,15924,56,99,-145
550884430,900,944,16916,88,143,-111
550886077,488,768,17052,156,239,82
550887726,-96,588,17360,109,14,86
550889387,36,172,16404,24,128,60
550891089,1032,-192,16132,135,306,63
550892772,600,260,17120,87,129,104
550894475,600,-48,16624,45,164,98
550896185,1616,-352,15928,30,196,-14
550897879,1276,-424,18124,180,-19,-91
550899576,2716,-420,15264,148,86,-139
550901336,724,-92,16712,-14,44,-203
550903042,140,352,18620,-7,61,-195
550904753,1304,512,16240,86,62,-142
550906465,1436,788,17608,80,20,-111
550908176,812,948,16332,-17,168,-98
550909888,580,760,15636,16,21,-84
550911622,180,736,16764,30,70,-61
550913335,1160,804,15940,67,35,45
550915151,-16,564,16256,17,156,38
550916874,-392,484,17148,-41,66,46
550918593,180,788,16124,-31,-4,98
550920351,584,68,17196,-23,188,84
550922226,584,260,16180,-73,290,62
550923936,336,684,17152,-163,-10,34
550925600,1004,536,16992,-182,94,78
550927258,2360,-188,17324,-69,74,111
550928914,1180,560,17484,-68,-166,83
550930595,1480,324,16812,-156,-217,66
550932317,184,732,17636,-217,-331,135
550934014,-88,-44,17912,-47,-117,143
550935738,748,-52,15328,-150,-143,-14
550937460,-416,440,16616,-217,-223,-19
550939172,-372,504,16676,-163,77,63
550940884,1020,-420,15772,12,-68,50
550942621,612,-188,16360,-7,-79,-36
550944332,252,556,15144,-188,119,-120
550946063,692,608,17176,-139,19,6
550947787,912,-16,17960,-21,-162,-27
550949495,2364,-32,15236,-69,-10,-77
550951205,956,664,17768,-215,-104,-73
550952942,952,728,18108,-172,-295,53
550954651,2072,496,16692,-151,-291,81
550956374,1328,388,17620,-160,-301,37
550958088,632,936,16000,-264,-117,113
550959800,1196,296,15868,-195,-222,169
550961508,892,-56,16396,-166,-176,109
550963218,1072,-176,14988,-190,-129,-2
550964967,-76,728,15432,-255,36,5
550966892,-76,332,18388,-222,-68,60
550968663,1364,140,15468,-175,-6,32
550970384,1176,-404,16312,-133,214,-88
550972104,828,128,16372,-221,239,-70
550973827,1576,160,17288,-213,15,3
550975504,2068,-72,17128,-164,70,-30
550977157,2208,-168,17024,-131,22,-94
550978830,1524,788,16632,-295,-5,-80
550980517,1368,300,18484,-291,-78,-48
550982182,2436,320,16524,-240,-133,-37
550983852,2188,-24,15916,-141,-185,-155
550985532,1520,172,15592,-214,-126,-155
550987207,332,476,16224,-233,-141,-67
550988882,-124,204,16428,-62,-29,-9
550990554,648,-244,14696,-34,72,-29
550992228,184,-156,15312,-122,17,-193
550993954,-236,276,16712,-225,402,-120
550995652,264,612,17264,-127,299,-40
550997378,1256,-60,17540,-56,306,-64
550999093,1764,508,15372,-109,255,-183
551000811,892,364,17128,-168,388,-125
551002529,848,484,17584,-107,325,-52
551004313,1600,120,16312,-60,128,-19
551006020,776,552,18404,-137,138,-132
551007718,516,592,18116,-191,14,-37
551009411,1128,780,17464,-143,-182,33
551011103,1372,204,17008,-114,-26,90
551012801,860,488,16540,-114,-4,-7
551014573,-76,640,16880,-178,-156,-14
551016296,128,696,16052,-221,38,115
551018014,656,100,15108,-73,32,157
551019726,-44,112,15600,-110,-9,52
551021493,540,312,13608,-221,193,24
551023286,-708,92,17752,-250,322,38
551025032,492,-300,16812,-63,184,55
551026712,1172,-80,16484,-93,322,-61
551028366,628,-64,18088,-141,220,-99
551030016,1272,-368,18264,-179,159,-122
551031690,1052,92,18468,-82,-71,-92
551033348,1492,-516,16492,-87,-15,-113
551035042,1276,308,16876,-235,-142,-213
551036745,856,920,17092,-263,-7,-124
551038464,704,868,17456,-162,-166,-76
551040179,1152,152,16332,-97,-259,-61
551041891,356,656,15652,-190,-199,-141
551043601,-468,1064,16120,-239,-10,-49
551045335,-404,712,16800,-98,-247,34
551047046,340,-332,16120,-109,-56,-101
551048754,616,576,15392,-248,253,-107
551050462,112,940,16696,-259,212,-45
551053309,2044,44,14868,-83,51,15
551055059,1500,-64,17164,-176,199,-179
551056861,488,764,17200,-249,206,-160
551058572,1224,408,18148,-211,-10,-139
551060278,1352,-24,17148,-155,175,-159
551061970,1932,224,17364,-168,-55,-266
551063670,2184,688,15416,-240,11,-259
551065368,1672,364,17428,-262,-92,-147
551067226,964,208,16248,-220,109,-131
551068996,1192,356,14780,-214,83,-211
551070690,-140,104,16944,-248,198,-153
551072367,580,332,16396,-227,193,-82
551074039,1196,-164,16120,-135,302,-134
551075711,1312,112,16128,-184,214,-222
551077437,992,516,16028,-252,360,-162
551079131,1132,352,18112,-162,194,-55
551080850,1604,-240,16800,-134,317,-131
551082567,2384,-504,16532,-158,223,-231
551084280,1020,216,17700,-274,459,-263
551085992,1620,648,17204,-69,323,-87
551087724,2388,-56,15648,-59,165,-112
551089436,1860,-392,16424,-114,281,-201
551091146,1364,348,15272,-231,333,-172
551092855,432,732,18260,-145,46,-12
551094577,1392,356,15388,-149,128,-6
551096401,400,24,16652,-159,163,-135
551098252,-288,752,16948,-183,351,-77
551100051,692,92,15684,-91,346,66
551101776,760,-172,15004,-95,253,9
551103466,516,-112,14788,-138,507,-55
551105166,516,456,15560,-256,405,16
551106864,-248,528,17964,-164,314,106
551108613,128,468,16624,-127,305,144
551110304,-16,-360,17308,-122,339,46
551111999,-140,356,17308,-270,326,-25
551113743,612,440,17228,-196,351,130
551115444,-388,264,18956,-75,203,147
551117137,976,-344,16572,-88,203,41
551118900,1568,472,15576,-182,72,23
551120579,912,432,17176,-189,197,91
551122318,1312,-60,16220,-18,-26,126
551124124,560,-180,17120,-95,-118,11
551125842,-144,664,17808,-193,37,33
551127527,708,424,16784,-128,45,77
551129276,164,504,17716,31,-59,69
551130954,1000,-316,16240,-29,95,-41
551132636,436,-72,17492,-61,4,-73
551134318,52,312,17060,23,211,28
551135998,620,-128,15240,30,72,25
551137697,1176,-208,16404,-91,63,-102
551139434,1660,396,15940,-108,249,-65
551141138,1684,348,16652,-46,207,24
551142845,1636,352,16872,-13,-163,-13
551144556,2428,-48,15520,-94,-2,-28
551146309,2152,628,15960,-118,91,-1
551148075,976,720,18152,-104,-67,60
551149873,264,568,16848,-88,-91,53
551151577,1148,140,15872,-101,43,7
551153272,344,736,17428,-76,20,57
551154977,284,140,16292,-83,58,75
551156690,696,-112,15488,-84,180,-1
551158389,896,-172,16668,-83,251,20
551160168,1448,568,15192,-76,205,-23
551161899,932,76,16512,-107,280,30
551163629,820,-40,16968,-58,245,-24
551165364,1888,-168,16284,-66,242,-50
551167141,1552,140,16896,-49,155,-100
551168929,584,-124,18220,-85,199,-64
551170688,436,8,16856,-42,188,-130
551172380,440,80,17984,-31,27,-139
551174039,792,444,17556,4,29,-65
551175704,928,-88,15932,15,202,-33
551177368,456,180,16988,6,163,-33
551179032,1264,224,16220,-65,-23,-82
551180809,1036,944,16448,-14,-29,-43
551182595,368,632,16864,42,113,61
551184335,800,660,15496,18,-39,84
551186063,-248,368,17404,9,-143,38
551187767,332,332,17288,163,251,87
551189519,636,380,17216,186,193,133
551191283,136,4,16456,109,130,74
551193044,1364,-280,15756,65,152,45
551194770,1244,200,17508,181,74,84
551196449,2108,52,16252,143,117,111
551198122,1304,320,16612,3,-136,82
551199795,184,244,18036,62,30,92
551201535,1208,168,16232,147,-54,142
551203240,576,68,18012,148,-125,135
551204961,452,-140,16172,-20,193,47
551206676,1184,-20,15332,85,103,-12
551208387,368,464,16956,162,63,34
551210096,1532,-88,15948,192,-13,49
551211833,488,-52,16880,73,58,-39
551213562,1192,60,15508,86,137,-93
551215291,20,636,17588,177,-179,-24
551217009,328,-44,18016,208,-27,-55
551218722,1172,204,16460,111,183,-69
551220431,516,416,17768,87,-50,-52
551222215,684,648,16624,173,-109,28
551223952,1044,648,16112,224,69,100
551226255,112,704,16516,121,125,138
551227977,260,260,17356,147,17,198
551229677,1932,-180,15964,269,15,270
551231347,1044,-400,16868,278,30,220
551233086,1172,-364,15960,78,141,110
551234910,704,480,16664,59,-86,137
551236615,1276,168,17492,292,129,180
551238304,1768,-304,16324,331,138,108
551239995,1472,-8,16288,97,4,-62
551241715,1064,316,16792,73,86,-80
551243466,960,240,17100,180,38,-8
551245175,540,116,17252,260,-3,-15
551246895,760,416,15968,70,31,-86
551248615,244,872,16724,54,116,-38
551250341,376,744,17076,172,95,30
551252135,1268,364,16296,264,-42,52
551253978,1040,340,16696,83,-50,0
551255697,100,744,16972,99,52,52
551257403,1088,348,16248,108,-42,93
551259099,648,-68,17428,163,-59,2
551260817,896,-64,16580,-9,183,-131
551262524,576,-60,16888,17,106,-132
551264233,540,396,17108,115,124,-74
551265979,1136,-376,15548,111,174,-155
551267846,720,212,16376,-10,124,-251
551269613,-968,1268,18120,46,36,-113
551271353,900,624,16180,113,88,-51
551273077,228,804,17864,183,44,-13
551274939,696,828,16960,83,205,-54
551276620,928,912,15516,71,25,12
551278283,248,884,17160,114,61,96
551279937,1500,360,15592,173,222,233
551281595,1596,396,16440,20,-8,126
551283258,1124,620,15912,-3,67,81
551284921,1948,124,14928,62,119,182
551286621,496,-432,18240,200,4,157
551288339,1720,-788,15464,199,51,80
551290049,1376,-920,16880,97,-46,-80
551291758,1116,-552,16728,164,264,-22
551293468,1144,-756,16580,176,76,-54
551295183,1104,100,17188,82,141,-183
551296907,1860,556,15632,10,324,-230
551298627,1772,404,16160,194,19,-131
551300340,1668,536,15948,210,101,-76
551302050,1620,196,15640,164,103,-89
551303760,796,224,17976,140,54,-176
551305488,1056,996,16380,144,45,-100
551307219,768,872,17464,164,-22,78
551308929,1820,260,16556,160,73,114
551310633,2260,128,15368,157,-33,60
551312329,916,296,17068,104,-88,62
551314028,856,-112,16000,122,11,107
551315731,1008,-296,15388,137,119,16
551317434,276,-544,15576,115,211,-57
551319125,216,300,15948,113,428,-158
551320808,-728,244,17732,141,264,-116
551322489,160,20,15428,146,256,-125
551324169,480,-160,17600,121,316,-275
551325909,572,1140,17844,114,196,-215
551327665,1028,496,18016,166,228,-47
551329350,1716,640,17392,178,107,-31
551331004,2056,64,17488,151,-147,-156
551332654,1432,1228,16328,28,-118,-38
551334304,1204,1108,16200,32,92,67
551335962,848,120,17060,19,-153,140
551337668,492,224,16772,-47,-279,-7
551339363,620,608,15544,-57,-126,-2
551341076,16,-252,17004,33,25,45
551342785,880,-376,15212,45,24,-34
551344495,160,-652,16472,22,-53,-159
551346233,588,-180,15780,-82,328,-282
551347991,932,128,15396,-105,285,-260
551349744,1956,132,16120,-78,174,-212
551351464,1896,-200,16484,-52,307,-280
551353174,1748,624,16300,-33,117,-274
551354892,364,740,18416,-157,-98,-186
551356619,1104,696,18112,-110,-68,-178
551358373,1160,464,17680,-52,-109,-205
551360090,668,1260,17528,-160,-217,-128
551361802,1004,1176,17336,-177,-268,58
551363518,1024,644,17504,-123,-348,88
551365284,868,-184,16288,-69,-308,-19
551367083,700,744,14372,-209,-160,2
551368911,-140,-104,15928,-187,-57,43
551370637,-208,-276,16248,-57,82,58
551372358,444,-720,15384,-52,74,-25
551374055,-192,-232,17152,-162,84,-91
551375750,592,156,17224,-161,311,-27
551377438,748,-52,17956,-116,135,-24
551379207,972,-152,17616,-79,23,-146
551380906,2128,688,14580,-216,163,-149
551382599,1292,764,18532,-144,33,-34
551384299,1500,756,17228,-131,-37,-20
551386013,1744,416,15852,-119,-182,-81
551387718,1324,520,16468,-153,-66,-5
551389477,368,648,16496,-171,-44,63
551391189,-172,228,18596,-78,-322,137
551392904,564,-168,16280,-120,-101,65
551394616,1124,28,14960,-184,53,-4
551396337,236,16,16696,-180,34,-16
551399168,1136,-156,16616,-44,-47,-58
551400922,1888,-1076,15880,-67,151,-193
551402627,1552,536,15540,-193,55,-247
551404324,1476,560,16456,-192,141,-153
551406034,1652,408,16324,-129,-2,-115
551407730,1008,432,17820,-68,-6,-207
551409412,1956,720,16080,-130,-18,-214
551411159,628,1028,17480,-205,-19,-105
551412858,656,468,17612,-28,22,-74
551414571,896,96,16580,-88,-69,-59
551416302,936,612,16520,-131,-69,-70
551418027,904,252,16372,-197,185,17
551419738,1076,24,15356,-31,-30,42
551421449,1040,-96,15616,-53,1,11
551423124,1308,0,15628,-164,102,-76
551424794,1068,-100,16924,-165,184,-57
551426507,1312,-364,17028,-84,110,-67
551428202,1860,-276,15688,-127,95,-156
551429892,1568,296,16360,-213,83,-242
551431604,644,320,17468,-168,151,-144
551433270,728,120,17556,-89,23,-137
551434930,1072,-364,16044,-98,-47,-212
551436593,604,-156,16012,-165,129,-312
551438255,324,348,16304,-196,178,-239
551439912,324,292,17872,-120,-108,-191
551441758,976,220,16104,-160,95,-220
551443584,944,780,16480,-164,102,-232
551445346,196,844,17440,-199,-35,-166
551447068,172,680,17464,-135,-70,-63
551448787,836,448,16116,-107,86,-76
551450515,1144,328,16636,-191,-152,-139
551452243,1268,860,15724,-274,-6,-129
551453938,960,568,18000,-139,-151,-14
551455622,1152,252,16160,-85,-98,-27
551457303,1176,-180,15752,-160,-85,-116
551458985,532,476,16444,-307,-46,-135
551460667,344,384,16608,-143,180,-37
551462404,-176,272,17252,-48,-16,-28
551464157,36,-112,16688,-197,67,-96
551465908,960,864,15392,-320,190,-73
551467693,388,584,17984,-117,79,73
551469546,800,608,16512,-131,-43,96
551471307,788,492,16292,-219,6,66
551473187,1084,628,17436,-257,117,100
551474887,1104,180,17632,-144,-100,183
551476559,1484,172,15472,-89,-146,146
551478224,1932,-584,15200,-168,83,90
551479893,1912,280,16160,-281,1,34
551481563,864,-16,18120,-199,-112,46
551483274,1276,-272,16232,-87,-66,-2
551484968,552,-56,16140,-108,90,-72
551486666,1312,-516,16336,-202,179,-190
551488359,728,56,17164,-224,52,-209
551490063,-60,-220,18152,-54,293,-203
551491765,1360,-136,14516,-49,257,-105
551493486,496,-48,16696,-131,168,-113
551495190,2084,732,15576,-247,263,-127
551496891,1508,832,17520,-173,54,-7
551498588,920,1404,17880,-84,-47,75
551500305,2464,812,15748,-139,-83,120
551502019,1040,1024,17464,-222,-67,123
551503749,-240,316,17588,-57,220,161
551505448,-340,256,17288,-39,0,179
551507146,20,-360,16300,-147,208,136
551508839,1572,-280,15360,-172,467,77
551510535,1288,-816,16800,-62,176,31
551512238,1544,-608,16112,-45,247,-21
551513966,1624,-700,15364,-219,383,-63
551515717,1268,212,16924,-173,231,-124
551517449,1996,224,15448,-168,351,-124
551519149,1496,164,17368,-150,135,-117
551520844,1056,676,17996,-216,206,-136
551522539,1572,1180,16184,-195,150,-104
551524314,496,1124,17228,-209,116,-33
551526011,-104,696,18052,-130,72,12
551527767,440,420,16236,-151,124,70
551529514,648,536,15952,-161,25,11
551531238,652,468,15680,-131,224,35
551532925,388,-408,17064,-64,77,39
551534590,684,-732,15880,-185,156,-82
551536329,1584,-1204,15872,-188,235,-172
551538104,956,-236,16592,-151,301,-156
551539822,704,144,16968,-49,179,-178
551541503,1376,20,17272,-229,198,-247
551543188,1924,-48,17336,-217,68,-331
551544876,1204,876,16792,-167,218,-238
551546576,528,748,16740,-88,131,-117
551548277,-196,1180,17028,-130,16,-106
551549971,848,832,16660,-189,26,-124
551551661,1288,1276,15524,-120,218,51
551553354,-364,1056,17632,-49,62,112
551555046,924,620,15180,-103,-77,194
551556750,564,-260,16188,-180,123,101
551558464,44,532,15928,-123,254,217
551560227,-16,-524,16576,-112,150,206
551561936,88,-304,16416,-137,84,62
551563680,844,-648,17144,-201,448,-17
551565421,1764,-336,17532,-144,223,-4
551567127,736,-624,17800,-140,256,-120
551568874,1632,-64,15304,-212,317,-178
551571301,1628,-344,16928,-185,88,-202
551573034,1192,676,17676,-179,40,-175
551574751,900,476,17540,-161,221,-156
551576453,520,612,17960,-133,-47,-109
551578134,952,596,17036,-127,-96,-99
551579860,1540,736,14824,-195,177,-17
551581543,336,764,16880,-172,84,62
551583216,-568,1012,16024,-138,87,41
551584894,344,456,15044,-125,299,15
551586637,240,152,17368,-69,222,79
551588338,1224,-408,15348,-86,412,54
551590045,760,-232,17260,-25,205,-16
551591756,1012,-740,18844,-58,191,-36
551593464,2736,-732,15916,-32,233,-49
551595170,1456,-356,16936,-82,428,-58
551596904,1072,332,17520,-193,279,-171
551598613,1976,312,16872,-134,219,-205
551600320,2080,380,17456,-39,271,-199
551602028,1248,220,16544,-1,316,-135
551603737,784,476,16312,-102,-12,-109
551605444,916,388,16640,-125,104,-105
551607180,1192,872,16676,36,256,-6
551608891,972,400,16660,19,0,112
551610598,624,588,16492,-102,-21,48
551612307,1552,172,15548,-80,206,19
551614024,1068,-80,16724,93,49,116
551615744,-144,-316,17288,45,48,49
551617509,1032,-648,15580,-29,359,-36
551619230,328,-956,17320,-12,248,-83
551620905,312,-360,16704,57,508,-174
551622583,728,-636,16448,23,399,-232
551624258,32,-428,17876,14,259,-259
551625929,928,-220,16892,59,271,-405
551627599,1588,612,17276,118,185,-352
551629290,436,832,18056,93,182,-297
551630973,732,564,16744,158,91,-225
551632625,1164,636,17148,200,-158,-227
551634280,880,1212,16780,194,-133,-172
551635932,1052,1164,16116,104,-17,39
551637633,-20,792,17036,94,-244,89
551639315,-40,764,16112,109,-264,100
551641009,-756,652,17352,237,-273,180
551642702,-836,-124,16944,232,-27,216
551644395,120,-340,15544,161,-61,179
551646094,-428,-552,17772,129,-113,48
551647846,932,-244,15800,209,172,32
551649568,1396,-52,15512,125,163,-8
551651290,724,132,16588,44,126,-69
551652998,1244,68,16348,50,-44,-121
551654708,780,448,17248,257,126,-60
551656417,1492,492,16296,236,118,-7
551658152,424,520,17268,22,-119,-48
551659864,476,1044,17560,34,35,-18
551661575,1592,1016,16244,274,-69,242
551663287,432,780,17664,248,-202,239
551665082,928,776,15496,-25,-112,202
551666801,324,480,17052,83,-96,279
551668595,536,308,17252,296,-200,319
551670491,1920,-372,15516,180,44,242
551672236,1316,-572,16912,77,35,176
551673916,1688,-344,16056,65,35,90
551675586,2384,-584,15948,204,-126,105
551677298,2076,-768,16636,204,42,67
551679035,2440,-576,14936,102,151,-116
551680715,1048,-364,16828,30,-87,-202
551682402,1648,-248,15268,64,19,-198
551684083,1384,-208,17172,150,18,-245
551685761,1268,308,17040,77,112,-309
551687442,1216,1012,15492,-7,50,-231
551689177,368,1160,16896,55,142,-148
551690877,1500,640,15748,210,223,-47
551692587,1236,532,15856,163,32,-75
551694295,1124,368,15764,103,171,-92
551696047,864,784,16368,181,186,50
551697761,736,160,17692,274,97,77
551699492,2124,-156,16276,130,164,-48
551701201,1684,468,17460,75,120,-60
551702918,1412,-24,16872,163,273,6
551704628,1624,-568,15596,205,127,-8
551706337,1304,-680,16596,206,226,-75
551708077,1648,-576,15504,76,303,-179
551709815,120,292,16492,132,221,-134
551711523,-92,120,18040,141,199,-137
551713237,1120,88,16032,171,146,-157
551715072,616,408,17836,208,195,-146
551716835,116,892,16340,170,317,-107
551718592,308,380,15792,152,189,-62
551720401,464,-216,17540,225,233,-107
551722087,1432,-120,15592,234,289,-141
551723760,-64,640,17176,184,48,-30
551725430,-12,212,18196,140,188,13
551727099,860,80,16752,164,111,-32
551728767,484,344,18444,147,-70,-146
551730491,616,464,17148,157,110,-136
551732193,644,252,17516,166,41,-90
551733901,384,-120,17516,233,-8,-109
551735622,1248,-288,15052,185,-64,-249
551737404,96,600,15748,101,43,-156
551739174,292,832,15572,121,198,-70
551741001,176,1080,16636,104,-93,-21
551743425,1432,932,15696,170,67,27
551745139,516,900,16424,177,149,77
551746853,192,524,15116,95,2,154
551748556,-328,356,16744,59,73,77
551750264,104,512,16280,102,211,118
551751986,864,656,16196,190,57,174
551753724,404,224,17572,98,62,185
551755416,1476,-472,17208,71,5,78
551757158,1680,-676,17184,138,-21,25
551758853,2000,-360,16468,130,28,-25
551760547,1048,52,16208,-28,-67,6
551762308,972,-288,16580,-50,59,-62
551764049,1848,-160,15900,44,-16,-135
551765766,1252,420,16524,38,-197,-134
551767477,216,552,16644,-32,31,-58
551769184,324,648,16764,-49,17,-43
551771055,492,668,17056,1,-126,-30
551772868,1324,624,15556,21,32,-12
551774574,804,664,15652,26,90,68
551776224,452,296,16596,23,51,53
551777874,1828,20,15544,-12,-19,23
551779531,2128,116,16712,23,81,75
551781181,2056,-288,15892,42,115,43
551782875,1908,-128,15552,-84,9,-20
551784562,1572,52,17488,-143,-53,-84
551786278,2172,68,16628,-123,10,-83
551788140,1636,324,17352,-55,-2,-119
551789968,956,-28,17116,-65,56,-198
551791759,2104,-408,15104,-74,79,-250
551793582,1140,408,16228,-13,15,-189
551795265,1004,212,15804,-37,59,-187
551796921,1008,240,15512,-135,56,-143
551798577,408,1220,17256,-123,99,-105
551800236,1380,956,16176,-73,75,-55
551801891,1624,804,17216,-24,-48,-16
551803547,648,312,17100,-6,148,-54
551805247,572,264,16480,19,31,-41
551806960,376,384,17268,-22,47,-67
551808722,1328,8,16924,-63,85,-1
551810431,1224,-240,16484,-44,192,-30
551812140,1052,-212,17276,-24,35,-101
551813858,1580,-876,16352,-59,-69,-178
551815619,1072,-96,16816,-143,183,-226
551817429,-32,8,17884,-36,37,-258
551819195,488,-108,16468,-75,-81,-292
551820926,808,-172,16220,-125,31,-369
551822636,792,908,16800,-131,127,-307
551824429,312,708,17284,-96,-128,-178
551826116,728,888,15876,-99,-102,-159
551827787,260,904,17588,-173,-13,-136
551829455,372,1508,16712,-134,6,23
551831126,300,844,17464,-118,-63,38
551832796,-32,436,16432,-57,-126,15
551834512,212,0,16272,-86,40,11
551836213,72,264,16684,-117,-25,12
551837923,-156,-28,17032,-131,31,58
551839629,1032,-588,15492,-123,47,-51
551841337,1456,-804,16872,-113,-10,-208
551843042,1932,64,16164,-197,53,-202
551844771,1656,-80,17392,-174,-119,-195
551846480,880,216,16864,-78,-212,-178
551848193,1536,60,15108,-113,-117,-191
551849901,644,516,17484,-240,-259,-245
551851608,-196,1392,17584,-272,-31,-101
551853313,948,700,15860,-63,-95,-42
551855020,208,804,17184,-92,-241,-25
551856730,580,1152,15752,-257,-154,-39
551858436,388,292,16964,-197,-65,88
551860144,-80,276,17332,-86,-178,88
551861859,1060,112,14584,-101,-24,75
551863636,1820,-216,16120,-199,-37,-22
551865351,1092,268,17008,-196,101,1
551867058,1852,-492,17240,-105,-65,-29
551868766,1436,-684,16636,-89,29,-164
551870504,1684,44,16104,-208,88,-263
551872299,1112,100,17192,-234,97,-158
551874067,548,300,18632,-160,-168,-139
551875919,1656,-256,16264,-129,74,-231
551877609,1952,356,15632,-207,56,-233
551879257,716,1168,16832,-261,-4,-182
551880903,1444,508,16752,-165,-170,-33
551882547,1064,228,15916,-141,79,-61
551884192,956,540,16272,-178,62,-103
551885872,796,1140,15308,-324,96,-15
551887558,972,608,16828,-172,25,39
551889267,1612,-96,15648,-79,196,18
551890975,1480,-148,16352,-44,195,-87
551892681,1156,-532,16908,-184,128,-161
551894388,1504,-372,16664,-157,166,-144
551896121,2188,-704,15752,-79,253,-178
551897832,1560,-380,16960,-135,106,-323
551899540,1112,284,16660,-277,353,-333
551901248,808,216,18488,-225,210,-328
551902955,1796,-204,16860,-34,141,-307
551904664,2008,-412,15372,-82,199,-468
551906438,480,604,17572,-245,179,-440
551908143,340,972,17576,-216,157,-327
551909872,1416,856,15968,-127,143,-126
551911565,1500,636,16840,-98,2,-213
551913341,-264,1016,17076,-212,153,-190
551916289,80,348,17668,-140,42,-89
551918170,1624,-268,16340,-93,54,-142
551919892,780,460,15036,-171,268,-172
551921577,436,80,17020,-160,242,-158
551923260,1272,-216,16224,-170,198,-110
551924943,1224,-380,17180,-123,219,-164
551926693,688,120,16708,-137,395,-238
551928386,204,240,17832,-200,-25,-204
551930082,1332,440,16444,-199,54,-202
551931777,1340,24,17504,-109,214,-155
551933470,780,704,16532,-79,41,-113
551935162,88,296,17072,-136,-102,-147
551936913,664,856,15028,-235,106,-43
551938617,664,464,16980,-97,174,50
551940328,196,284,16400,-85,-39,1
551942039,-60,48,16488,-127,37,-46
551943746,744,296,15776,-191,105,-28
551945453,968,-356,17308,-91,-17,-57
551947170,1156,-108,15816,-89,6,-97
551948890,736,-572,17288,-160,59,-163
551950599,1548,-72,16124,-190,104,-175
551952305,2328,180,16480,-178,27,-229
551954011,1104,-88,17632,-155,-50,-226
551955714,292,-208,17032,-175,64,-279
551957428,964,796,14544,-255,227,-222
551959147,-228,784,17972,-273,53,-198
551960856,268,1092,16504,-169,41,-115
551962562,512,760,16848,-127,94,-30
551964305,712,820,17112,-245,-108,12
551966044,1424,652,16092,-261,-32,14
551967774,968,692,16228,-121,221,149
551969496,412,448,17164,-86,-36,107
551971193,1620,392,14852,-170,-53,95
551972888,1856,88,17272,-243,175,50
551974652,1436,-332,17360,-86,250,-1
551976443,2044,-712,16196,-116,66,-77
551978161,1504,-340,16700,-183,54,-108
551979847,2248,-604,17040,-222,274,-207
551981534,1756,-308,15632,-191,77,-186
551983203,960,-472,16740,-168,181,-252
551984886,1764,-160,14000,-264,345,-355
551986557,1220,352,16692,-238,257,-336
551988210,1028,704,15608,-166,317,-323
551989903,780,408,16288,-144,223,-249
551991611,384,1032,16544,-197,344,-194
551993317,1304,908,16888,-155,234,-140
551995027,280,1568,17520,-163,146,-51
551996759,84,648,18340,-105,237,63
551998624,1184,-24,15532,-100,335,38
552000433,1944,-364,15596,-167,184,-42
552002198,724,-380,16968,-148,333,-17
552003963,952,-512,16832,-82,388,-3
552005814,712,-368,15700,-118,189,-56
552007625,692,-864,17032,-212,246,-207
552009383,152,-144,17240,-156,445,-197
552011124,248,168,17892,-69,311,-158
552012866,1220,8,16052,-141,270,-223
552014612,1280,444,16808,-251,312,-286
552016391,736,884,16624,-57,328,-175
552018175,736,848,17168,-7,73,-100
552019962,1224,620,16204,-86,160,-65
552021738,1084,588,16804,-109,163,-63
552023499,-204,824,17796,-20,46,14
552025222,496,112,16616,-6,28,85
552026922,1300,-468,16176,-110,23,47
552028603,964,-132,16968,-202,210,-152
552030353,520,268,16640,-141,201,-99
552032098,452,100,17592,-43,96,-30
552033758,1796,-460,15756,-51,350,-36
552035407,1996,-580,16728,-134,242,-235
552037056,1004,-240,17352,-123,164,-335
552038703,1244,344,15664,-48,292,-218
552040376,1536,48,16336,-43,345,-166
552042060,1020,228,17452,-86,248,-263
552043800,1464,836,16180,-137,132,-280
552045502,1328,1156,17888,19,112,-45
552047172,1144,624,17172,99,-48,0
552048857,1452,248,16112,21,-66,-60
552050630,-88,504,16596,-109,143,-36
552052366,-120,340,16796,60,131,86
552054104,240,284,16132,56,68,171
552055849,928,-620,16764,-49,86,11
552057608,496,-36,16560,-111,212,-55
552059371,172,-772,16972,44,144,11
552061226,276,-148,16312,29,131,-98
552063010,1340,-120,15384,-40,262,-147
552065055,1188,4,16500,-10,285,-262
552067109,324,1044,17992,44,128,-223
552068869,1800,148,17640,117,15,-91
552070619,1636,204,16544,6,63,-135
552072365,760,968,17524,-33,-65,-147
552074118,820,656,17400,124,-196,13
552075875,404,344,17548,134,-193,30
552077646,628,132,15656,101,-19,-22
552079387,-216,-200,17188,22,-149,-88
552081104,124,660,16124,37,-206,-19
552082826,900,-480,17036,133,-4,-27
552084528,356,-260,16424,-4,59,-180
552086244,844,-348,15344,-49,34,-198
552087959,588,-464,16224,31,186,-214
552090145,592,-188,17868,160,113,-273
552091933,1256,-40,15772,74,109,-296
552093609,736,192,17444,-21,205,-300
552095281,840,648,17280,213,147,-209
552096950,1080,780,17828,224,-47,-147
552098616,1176,984,17728,30,27,-150
552100280,1528,884,16920,13,59,-152
552101993,800,768,18156,107,-147,-119
552103692,1244,648,16588,335,-85,17
552105407,1480,552,15256,224,28,104
552107119,664,8,16524,93,-10,81
552108831,1004,-472,15836,80,-68,45
552110540,348,232,16452,244,34,100
552112248,764,-404,16876,243,268,127
552113963,1092,-396,15676,169,92,95
552115761,452,-536,17456,58,171,-82
552117574,1060,-20,15928,205,416,-120
552119341,1960,-268,15912,220,318,-38
552121082,1380,-52,16752,118,339,-102
552122916,2020,-88,16708,8,198,-210
552124602,1796,464,17612,188,76,-156
552126269,1344,532,17624,193,100,-145
552127931,1456,544,16916,119,45,-147
552129596,600,764,17680,23,59,-132
552131259,800,656,17156,244,-11,-87
552132922,324,824,17340,298,-182,-43
552134586,452,520,16764,181,-26,2
552136280,712,-24,15720,73,66,-23
552137988,-252,172,16992,132,-33,-73
552139695,216,56,15696,253,85,-10
552141409,352,-24,15444,180,191,-17
552143120,-272,104,17240,115,155,-59
552144835,964,-420,15644,117,86,-115
552146564,384,56,17496,234,55,-100
552148285,400,60,17024,172,278,-134
552150000,620,144,16692,121,144,-154
552151712,-228,352,18184,72,-17,-175
552153422,948,628,16908,211,147,-126
552155146,1484,404,16168,181,17,-41
552156870,616,556,17032,90,-55,-71
552158591,648,536,16240,36,-156,-74
552160318,608,684,16788,277,-90,108
552162040,856,580,16344,273,-67,115
552163757,824,264,15196,43,-231,68
552165485,352,112,17152,-22,-95,4
552167195,564,64,16968,264,-31,75
552168891,1312,-232,16108,256,-144,91
552170585,524,-40,16168,54,76,-48
552172297,1084,-504,15780,16,200,-119
552174013,348,-76,17540,126,68,-111
552175727,1744,-408,15616,210,224,-182
552177448,1636,-56,15972,43,284,-227
552179180,900,336,17924,40,-39,-226
552180862,2440,180,15872,105,86,-222
552182515,2288,620,17292,160,30,-184
552184173,1296,688,16404,54,99,-170
552185896,1544,156,16016,-12,130,-205
552187587,1280,712,17744,5,-97,-228
552189284,1856,1036,16660,152,85,-74
552190965,1700,992,16952,168,20,-32
552192646,1220,220,16232,77,55,-49
552194326,992,88,15884,24,31,-109
552196122,444,-52,16780,232,181,-34
552197841,1548,-508,14824,261,357,-15
552199564,540,172,15284,63,258,-49
552201280,324,388,17668,6,327,-164
552202993,1616,360,16484,133,383,-112
552204708,1704,420,17000,293,396,-44
552206501,1608,88,16340,143,398,-88
552208208,1544,148,16324,28,312,-115
552209906,1720,-16,16548,139,465,-137
552211602,2096,-36,16408,228,311,-114
552213305,1052,168,17076,111,117,-162
552215004,1472,-168,15712,72,248,-168
552216707,608,-4,17412,104,63,-185
552218445,-140,304,17760,158,57,-144
552220208,496,-136,16132,48,287,-191
552221922,-404,56,16804,55,189,-206
552223607,84,92,16740,22,72,-278
552225291,700,200,15768,76,123,-260
552227053,112,684,16676,49,229,-195
552228747,188,816,16036,7,177,-174
552230442,144,736,16748,-51,-11,-205
552232139,352,804,17512,19,97,-129
552233830,1092,576,16772,83,152,-65
552235522,56,656,17144,34,-45,-84
552237275,-152,572,17048,-86,-146,-74
552238982,436,428,16768,-86,-25,-48
552240695,140,540,17280,-10,-37,-8
552242406,160,348,16728,-115,-137,8
552244116,616,476,16668,-171,-218,-3
552245826,1168,564,16780,-104,-103,41
552247559,1692,-288,16332,-84,-215,29
552249273,648,116,16020,-206,-229,-55
552250980,520,-4,16088,-245,-105,-62
552252690,536,168,15660,-196,-96,-48
552254402,576,468,16984,-153,-170,-57
552256114,312,32,16464,-192,-43,-144
552257851,28,-52,16824,-184,6,-169
552259561,668,288,16788,-179,-68,-180
552262386,920,384,16880,-148,-15,-189
552264159,1072,260,16656,-108,-112,-165
552265881,1648,480,16444,-152,-139,-164
552267601,2140,208,16252,-164,-146,-278
552269315,1876,124,16872,-130,-73,-202
552270986,1444,124,16956,-103,-135,-189
552272679,1348,112,16916,-151,-336,-245
552274363,1872,160,16508,-270,-167,-250
552276053,1984,224,16408,-197,-98,-248
552277790,1076,184,17124,-171,-172,-229
552279513,1640,0,15120,-173,-222,-243
552281203,1708,-88,15660,-253,-80,-294
552282882,1344,704,15820,-254,-33,-288
552284548,1168,420,15708,-205,-136,-195
552286208,512,708,16368,-130,154,-203
552287877,1384,816,15388,-106,258,-183
552289595,368,1048,16048,-183,132,-191
552291296,108,936,16768,-163,484,-35
552293012,1280,132,16904,23,263,1
552294724,1576,404,16964,34,200,-8
552296434,2168,148,16432,-122,166,-25
552298143,1644,608,17924,-197,107,85
552299876,1900,184,17660,-77,113,153
552301698,2564,-200,15752,-37,-38,126
552303687,2600,-188,15704,-237,-13,-45
552306399,1684,-384,17580,-50,-110,-6
552308141,1064,-652,15580,-38,-130,-80
552309952,728,-932,15364,-89,-46,-173
552311633,-444,348,16240,-205,263,-281
552313340,84,-264,16652,-126,265,-266
552315039,584,-96,14948,-37,255,-320
552316704,64,-104,15728,-42,438,-338
552318393,640,456,16440,-126,354,-304
552320116,332,872,17672,-133,250,-221
552321812,428,624,17348,-77,176,-196
552323482,756,680,17032,-54,223,-139
552325150,1004,1236,16560,-178,146,-49
552326813,508,1284,17816,-242,30,58
552328474,688,520,18564,-117,-263,151
552330193,692,356,16344,-140,-97,134
552331895,1068,352,17040,-220,-164,78
552333620,60,800,17456,-292,-223,104
552335329,120,-368,16680,-61,-89,109
552337038,592,-900,14824,-79,-28,-14
552338746,296,-552,15584,-166,-43,-101
552340479,392,-276,15960,-274,128,-151
552342189,88,-280,16900,-69,123,-153
552343897,1164,-172,15708,-68,125,-162
552345602,1188,40,17076,-216,38,-274
552347354,1200,820,17896,-271,166,-220
552349098,1400,544,17864,-61,-233,-132
552350845,1716,676,16648,-114,-277,-75
552352558,1276,908,16592,-241,-235,-108
552354274,536,876,17216,-221,-197,-50
552355996,444,200,16044,-141,-262,9
552357761,768,232,15316,-145,-102,-50
552359487,396,24,16332,-176,-15,-131
552361228,-304,328,16780,-206,13,-93
552362940,440,-180,15708,-100,101,-112
552364659,420,-380,16860,-144,128,-129
552366464,1344,-164,15816,-214,224,-246
552368270,1448,104,16644,-269,264,-310
552370011,1668,284,17556,-156,112,-223
552371815,2516,-68,15964,-133,206,-240
552373535,2080,268,16568,-211,70,-313
552375242,804,1028,18184,-312,70,-262
552376916,1040,936,17876,-237,-77,-201
552378593,1036,512,18072,-90,-18,-95
552380299,1076,484,16088,-180,-4,-217
552382020,792,664,15976,-280,139,-157
552383701,464,916,17396,-242,94,-67
552385376,1220,584,15948,-154,67,-25
552387050,884,668,15492,-178,83,-15
552388786,768,640,15044,-226,339,-10
552390553,320,736,16296,-143,221,52
552392312,612,-232,17588,-91,196,113
552394041,1216,-588,16852,-76,414,-58
552395762,1400,-300,16568,-132,334,-41
552397519,1116,-28,17276,-159,336,-41
552399301,2460,-736,17064,-203,248,-79
552401076,2592,-228,16008,-204,301,-216
552402896,2180,-108,16436,-188,341,-253
552404586,1664,-52,16628,-165,-61,-250
552406275,844,-328,17760,-151,36,-283
552407962,628,-92,16564,-109,272,-350
552409644,248,176,17236,-162,128,-320
552411326,-120,1128,17048,-178,2,-256
552413069,760,636,16284,-100,289,-147
552414776,488,540,17288,-49,146,-141
552416501,-308,616,16364,-146,212,-148
552418216,-648,1028,16176,-162,249,-78
552419985,4,236,17184,-47,323,15
552421788,576,252,16424,-50,311,7
552423643,612,424,16044,-211,310,-35
552425330,336,656,17196,-175,261,25
552426979,552,-316,17364,-112,273,31
552428626,1020,-436,16856,-139,175,-44
552430270,408,-108,18032,-225,221,-101
552431915,776,-108,17596,-138,161,-113
552433600,1496,-148,16816,-93,108,-97
552436147,944,92,16268,-271,41,-211
552437867,604,4,17216,-296,97,-211
552439575,380,1056,17300,-149,-90,-130
552441281,964,348,17636,-75,-184,-47
552442998,444,568,15920,-134,72,-142
552444797,124,496,16380,-125,65,-120
552446505,-648,724,16556,-54,-108,-11
552448206,-184,-300,16328,-76,71,-64
552449899,448,-240,15104,-119,405,-88
552451593,-88,-132,17048,-121,309,-102
552453283,1064,380,15688,-116,150,-125
552454975,2136,-764,17196,-81,284,-155
552456684,2416,-884,16860,-83,324,-238
552458398,1332,-440,17444,-127,88,-342
552460111,2016,616,16136,-156,95,-237
552461822,1988,-72,17392,-171,200,-241
552463535,1992,600,16776,-162,61,-293
552465275,920,808,17424,-245,-2,-307
552467034,640,1244,16460,-149,-81,-232
552468750,836,1276,16216,-117,53,-140
552470443,820,620,16560,-83,19,-86
552472154,-176,724,16680,-183,13,-61
552473891,536,1024,15008,-100,289,73
552475695,416,276,16512,4,333,100
552477382,696,524,15572,-33,287,109
552479061,984,-80,15752,-138,491,76
552480742,444,-292,17360,-122,448,46
552482420,1228,20,16256,-11,342,88
552484092,1488,-380,16160,-118,404,51
552485820,1436,-240,16580,-253,531,36
552487495,1324,-164,17936,-189,275,2
552489172,2076,-48,17916,-9,207,5
552490855,2680,-192,17120,-72,152,-25
552492538,2072,-200,17532,-136,113,-102
552494218,1268,68,17244,-76,69,-192
552495950,1176,364,16848,94,-59,-18
552497651,1280,-116,17036,77,15,5
552499362,1144,432,14836,-63,228,-45
552501073,-8,656,16684,-57,16,-71
552502781,380,120,15704,61,54,-38
552504488,308,-76,16296,169,283,19
552506199,-392,92,16456,90,322,-43
552507908,308,-68,16384,-14,356,-113
552509616,52,280,17688,18,311,-69
552511325,1432,-52,17184,175,411,16
552513032,2116,-28,16596,77,162,-81
552514743,1712,-56,17160,7,122,-128
552516459,1412,-12,16704,-34,112,-142
552518160,1196,396,17744,112,-56,-73
552519858,772,340,17720,51,-176,-91
552521585,996,100,16772,-18,-142,-101
552523332,-352,788,17124,69,-220,37
552525057,-652,400,17276,160,125,70
552526834,-752,224,16540,24,22,-14
552528507,-1544,500,17320,-2,-119,-29
552530166,-512,696,17000,183,217,36
552531822,932,76,16488,244,42,95
552533479,1084,468,16128,150,69,43
552535137,2084,72,15512,65,186,-51
552536836,1364,116,16952,207,-17,8
552538528,1828,-468,16824,274,38,-3
552540242,2424,-1052,15696,233,20,-90
552541955,1116,-712,17756,104,-64,-210
552543665,1716,-532,16456,112,-108,-235
552545375,1224,64,17056,133,-211,-219
552547110,1012,468,18008,126,-155,-242
552548833,848,600,17208,63,-182,-290
552550552,388,736,17252,102,-294,-296
552552260,416,1132,15516,169,-21,-113
552553968,1008,384,15508,188,-4,-151
552555681,624,396,15960,109,8,-192
552557417,524,1416,15088,87,127,-78
552559135,1160,780,15916,206,146,158
552560852,720,484,17044,138,-28,74
552562558,1724,144,15656,51,101,-5
552564270,684,336,17148,6,105,4
552566013,524,568,17412,206,97,180
552567902,1840,-160,16308,161,166,121
552569628,1732,-204,17356,72,108,61
552571309,1532,236,15884,29,203,33
552572983,1704,-48,15812,134,-9,139
552574684,1580,-224,16736,133,12,124
552576403,2144,-64,15908,64,-1,2
552578146,1100,60,16996,41,30,-29
552579837,812,-8,17336,106,35,31
552581542,688,-260,16516,138,-43,1
552583233,588,-408,16332,94,174,-139
552584916,540,512,16364,58,191,-139
552586597,60,668,17252,84,76,-69
552588280,956,92,16416,134,191,-38
552589968,1640,-80,15356,183,264,-122
552591663,1280,-4,16780,119,192,-161
552593356,428,556,17140,161,149,-118
552595053,684,88,16944,239,171,-58
552596748,1876,-124,15772,247,268,-25
552598502,1704,168,16316,130,96,-131
552600208,672,1020,17472,74,118,-68
552601919,1412,280,17044,206,180,0
552603624,1292,248,17608,248,5,-33
552605335,1960,-168,16156,163,12,-133
552608217,524,196,17008,115,184,-22
552610059,1300,-244,15684,167,78,-70
552611767,1060,-52,15568,108,110,-136
552613476,872,152,15364,96,338,-142
552615179,588,224,16356,163,288,-60
552616875,580,84,16288,144,193,-163
552618570,600,-244,15912,120,319,-235
552620331,272,648,17232,155,393,-167
552622014,828,488,17056,177,267,-61
552623719,540,448,17448,151,111,-68
552625435,1148,196,17388,141,166,-131
552627116,1068,372,17020,132,101,-155
552628781,1376,232,16896,110,50,-94
552630513,632,324,18240,110,-58,-78
552632193,1652,-68,16696,173,15,-114
552633878,1676,68,15968,100,-86,-182
552635560,944,28,16192,80,-56,-158
552637242,348,-240,16504,114,-19,-134
552638922,368,-552,16236,235,7,-242
552640667,612,-376,15728,184,18,-281
552642381,-380,564,15792,78,153,-280
552644100,-64,564,16488,100,220,-201
552645810,824,412,16536,203,189,-251
552647520,1412,708,16244,128,212,-268
552649270,684,984,17184,98,135,-185
552651141,888,964,16864,183,171,-63
552653003,1260,476,16788,192,135,-83
552654761,956,732,16284,49,82,-103
552656474,408,1168,16880,36,138,-2
552658177,1468,940,17200,144,-75,120
552659890,1532,168,17300,102,-196,123
552661693,1912,92,16424,27,-80,74
552663418,908,440,16496,-10,-96,52
552665148,740,40,16920,15,-114,104
552666909,1424,-496,15840,47,5,0
552668626,1272,-384,16280,17,68,-72
552670308,1056,376,16048,-51,132,-46
552672060,1408,-76,16124,-62,42,-48
552673784,956,-380,16472,-13,165,-234
552675494,1320,64,15856,-11,219,-232
552677181,692,432,16744,-84,133,-227
552678869,840,248,17980,-23,82,-203
552680551,1528,428,16484,-9,182,-205
552682240,1540,180,17076,-9,47,-252
552684038,1044,772,16844,-103,-28,-176
552685715,1080,908,17184,-100,-4,-79
552687384,1468,592,17408,-46,41,-68
552689048,1708,488,16116,-124,-116,-150
552690711,676,1204,16192,-215,-25,-80
552692375,756,528,16800,-156,77,-21
552694083,736,144,16200,40,-58,-12
552695778,468,-408,16008,-22,-7,-141
552697488,444,-232,15164,-107,149,-155
552699201,124,-432,15632,-112,320,-137
552700909,708,-136,16292,-34,224,-170
552702616,936,-80,16164,-28,271,-254
552704327,916,288,17032,-128,263,-310
552706028,1164,380,17608,-62,285,-201
552707721,1876,124,16588,6,90,-195
552709414,1380,-144,17188,-4,51,-262
552711107,1220,592,17804,-133,46,-240
552712802,1116,980,17168,-171,-46,-136
552714560,1236,828,17692,-139,-150,-82
552716270,1552,188,16520,-52,-250,-66
552717983,696,180,15660,-107,-117,-122
552719698,-760,256,17052,-224,-127,-137
552721407,-336,112,16264,-176,-182,-125
552723130,72,-544,15888,-78,29,-209
552724884,-188,20,15736,-94,280,-307
552726596,340,48,16144,-165,198,-314
552728255,412,408,17016,-148,103,-319
552729903,1364,-44,16664,-47,377,-362
552731548,1492,384,17960,-37,210,-374
552733193,1192,872,17936,-143,5,-383
552734893,1588,780,17216,-179,6,-336
552736710,1824,68,17860,-20,-130,-277
552738527,1796,52,17132,-45,-275,-291
552740293,256,528,16420,-203,-203,-293
552742017,-576,1052,16720,-228,-97,-171
552743752,344,240,16960,-115,-259,-56
552745607,12,428,15300,-118,-80,-102
552747368,-536,352,16012,-165,48,-144
552749055,-80,296,15908,-189,-8,-95
552750748,892,216,15476,-137,113,-53
552752417,316,172,16888,-123,109,-71
552754083,348,296,16272,-133,231,-85
552755812,2096,552,16104,-207,89,-68
552757520,1872,572,17900,-225,54,-48
552759239,2736,-232,17340,-135,-106,-111
552760949,1332,-104,16440,-170,-130,-77
552762655,892,116,17916,-247,-319,-118
552764374,1620,296,16400,-287,-345,-93
552766167,1488,172,16840,-234,-145,-62
552767957,596,48,16488,-140,-29,-153
552769756,1124,224,13844,-238,-183,-194
552771452,-100,408,16420,-355,-79,-141
552773143,496,108,16836,-175,200,-159
552774866,248,104,15424,-108,46,-175
552776604,108,428,15356,-186,96,-174
552778293,1376,456,16268,-297,405,-144
552780697,2244,388,16024,-97,139,-129
552782406,1652,156,16720,-121,176,-141
552784111,2404,176,15972,-221,208,-129
552785805,2824,-64,16000,-204,70,-111
552787572,2032,-96,17008,-177,91,-171
552789257,1436,36,16896,-212,84,-251
552790934,1356,468,15396,-221,82,-220
552792605,1356,656,16336,-229,102,-194
552794275,1952,-96,16036,-136,33,-207
552795944,692,-64,17280,-137,156,-288
552797665,856,680,15928,-184,178,-223
552799361,456,332,16996,-235,10,-157
552801075,696,152,16808,-180,190,-192
552802785,184,764,16216,-88,352,-182
552804497,140,1088,17180,-117,165,-104
552806210,1168,536,16624,-162,264,-13
552807949,1804,80,15920,-85,324,-93
552809663,788,124,16408,-56,234,-33
552811374,552,272,16444,-90,191,-32
552813085,1148,-212,17060,-192,233,-90
552814801,868,120,17196,-121,266,-88
552816517,800,-436,16280,-59,244,-101
552818311,208,-324,16876,-97,114,-201
552820018,560,-528,17032,-238,222,-356
552821696,1000,-248,16684,-114,357,-414
552823368,716,-80,17536,-79,231,-414
552825086,824,-44,16368,-116,106,-462
552826801,1044,512,16836,-177,210,-448
552828576,1064,976,17212,-175,126,-379
552830261,868,928,17544,-133,-42,-228
552831930,128,1196,16268,-163,-3,-186
552833594,204,1120,15828,-167,119,-170
552835257,184,1044,16644,-165,-9,-129
552836921,-104,740,16600,-102,86,-9
552838629,152,436,16004,-49,122,63
552840325,248,52,15500,-66,188,34
552842036,688,-80,15708,-191,39,-10
552843744,136,172,17444,-149,161,61
552845452,812,-144,17288,-77,200,87
552847176,1520,-588,16288,-113,70,-33
552849063,2044,-520,17188,-249,23,-151
552850821,1684,44,17232,-200,140,-139
552852538,1144,376,18172,-109,-99,-56
552854247,1420,92,17044,-166,-76,-99
552855942,1956,420,15832,-271,-58,-152
552857640,1012,300,16744,-159,-25,5
552859360,528,388,16680,-61,-70,-14
552861057,768,124,15300,-113,-87,-47
552862753,296,416,15832,-210,45,-89
552864458,152,552,15316,-167,190,-34
552866229,292,196,16812,-38,12,66
552867967,804,-120,16444,-108,195,-45
552869781,1636,148,15464,-211,364,-92
552871467,1356,412,16848,-224,301,-38
552873162,1488,92,17736,-106,92,-34
552874878,1944,-264,16776,-204,283,-151
552876579,1980,4,17200,-231,197,-175
552878255,1164,504,17856,-221,194,-66
552880028,1536,4,16408,-151,9,-85
552881718,1272,132,15992,-218,211,-167
552883407,800,236,16108,-216,219,-170
552885100,488,236,16220,-227,181,-132
552886791,520,328,16040,-183,211,-123
552888472,828,608,14676,-220,455,-138
552890215,944,400,16724,-232,290,-190
552891894,396,568,16368,-208,362,-107
552893564,684,364,16644,-175,336,-25
552895236,564,28,17804,-120,355,-73
552896908,592,0,17720,-169,192,-175
552898578,684,16,17616,-137,377,-99
552900298,1180,252,17848,-57,310,-23
552901994,1832,-296,16448,-126,159,-99
552903705,1932,-108,16904,-283,158,-211
552905415,1268,-76,17144,-230,178,-240
552907126,1160,-68,16364,-39,44,-192
552908835,800,-696,16528,-125,59,-247
552910544,1048,-532,15792,-160,166,-321
552912261,116,-68,16636,-136,355,-353
552913974,48,1012,16360,-16,234,-272
552915689,876,80,16760,-44,244,-234
552917403,1084,348,16156,-69,300,-231
552919121,364,220,16580,-81,304,-266
552920902,-224,864,17612,-30,143,-200
552922578,672,436,17364,-11,310,-90
552924244,1084,496,16996,-12,267,-59
552925960,536,672,17612,-83,119,-101
552927666,1324,796,16460,-98,47,-91
552929353,1284,556,17300,-61,107,-32
552931096,1404,528,17284,-41,115,-37
552932770,1024,352,16796,-94,-85,-70
552934445,712,232,17252,-59,43,-86
552936117,1164,-88,16456,111,175,39
552937789,1284,124,15892,96,-83,74
552939463,612,-64,15756,16,19,67
552941181,720,64,15712,-61,118,61
552942880,900,444,17040,81,55,181
552944590,1048,120,16900,59,24,145
552946299,1388,-328,16272,15,97,96
552948053,888,-60,16968,104,103,17
552949774,1292,-300,16668,193,41,60
552952715,268,-344,17360,36,273,-54
552954471,768,-204,16376,49,177,-65
552956189,528,184,17828,100,-4,-12
552957903,1200,48,17320,128,141,-54
552959617,1248,172,16128,74,148,-97
552961327,400,288,17368,84,102,-119
552963037,812,572,16136,122,37,-33
552964746,1196,640,15312,124,71,69
552966511,572,552,17124,51,-10,48
552968293,860,940,15932,-1,36,48
552970012,1224,596,16816,68,-52,184
552971709,1100,8,15824,111,91,145
552973479,688,76,16168,65,37,85
552975194,-188,784,17256,-6,-48,51
552976913,1020,-648,17048,82,143,153
552978602,1200,-448,15632,101,133,-27
552980303,1060,-496,16360,37,101,-114
552982000,1148,80,16728,-16,100,-131
552983751,1780,-124,17488,124,66,-48
552985430,1832,-240,16640,159,0,-94
552987113,1428,40,15864,-20,-56,-195
552988786,-144,1088,17576,-38,117,-175
552990460,596,964,17072,60,130,-72
552992129,912,588,16440,141,-19,-18
552993849,960,276,16976,31,14,-142
552995654,436,440,16536,66,113,-4
552997502,1144,-592,16924,214,1,31
552999312,1144,-388,16596,233,15,-46
553001048,1668,-764,15744,91,100,-128
553002747,1172,104,16064,79,147,-150
553004553,1224,160,17424,160,99,-175
553006265,1788,-124,16452,186,47,-215
553007948,1600,-460,16896,138,180,-310
553009626,1136,528,16604,141,154,-231
553011297,1232,552,17260,128,-4,-200
553012974,908,536,17748,104,123,-215
553014666,1268,652,16472,144,89,-175
553016368,332,1308,17216,165,-16,-103
553018081,764,1052,15808,134,111,77
553019780,632,388,15660,119,139,109
553021472,-128,560,16480,101,52,84
553023175,196,712,15416,101,145,158
553024879,-128,352,16404,133,187,336
553026549,552,-116,16780,146,319,349
553028275,1280,-464,16652,113,190,275
553029991,796,-92,17708,125,104,203
553031665,1036,-108,16944,84,333,216
553033323,588,-192,17468,108,270,177
553034982,1484,-456,17864,220,148,28
553036657,1884,36,16804,248,130,-41
553038348,1412,-152,17352,233,128,-62
553040064,1100,-332,16056,177,77,-177
553041748,820,-340,17336,200,-101,-202
553043467,628,396,17044,244,47,-114
553045213,1024,576,16104,203,107,-64
553046913,60,832,17020,80,-21,-105
553048621,700,792,16024,169,-25,-112
553050332,-116,1112,16968,206,32,-33
553052077,-324,648,16468,236,218,61
553053792,552,616,15460,59,109,39
553055528,1024,756,16308,104,177,51
553057238,1116,636,16360,179,311,75
553058944,1200,416,16348,175,119,98
553060653,812,96,17232,8,13,40
553062360,1604,168,16216,13,116,27
553064116,1508,-88,17344,197,95,66
553065846,1636,-244,16744,80,45,17
553067626,1960,28,16612,-59,32,-95
553069391,1236,328,17772,29,16,-47
553071092,1940,-276,16304,112,-18,39
553072788,800,184,15992,-50,-114,-110
553074471,-72,392,16952,-69,99,-113
553076193,184,356,16596,58,76,-48
553077911,564,216,16512,192,37,-21
553079674,344,100,15748,57,211,-105
553081456,684,28,15708,61,378,-99
553083233,-36,404,17444,113,239,-73
553084969,1084,-8,16276,240,213,-104
553086863,1640,84,15480,99,344,-118
553088656,1156,452,17656,41,206,-104
553090464,2184,320,17816,142,112,-84
553092314,2160,20,17692,149,11,-135
553094129,2044,76,17424,139,70,-188
553095870,1472,368,16500,43,2,-143
553097622,1408,296,16684,42,-73,-50
553099360,864,128,16876,50,17,-42
553101085,1172,72,14548,33,116,-103
553102807,-12,664,16392,0,95,-53
553104534,120,540,16400,90,252,57
553106256,772,108,15492,171,323,68
553108089,400,140,16240,109,333,-53
553109856,8,1028,16352,7,373,-32
553111568,980,640,16744,137,474,146
553113305,1116,296,17416,194,456,123
553115085,1864,368,16744,85,232,22
553116876,1596,676,17104,-6,230,36
553118649,1600,96,18160,102,148,120
553120396,1948,56,16836,96,-75,62
553122118,1496,-160,17748,38,-124,17
553123798,1492,196,16860,-5,22,48
553125856,956,-288,16816,-11,-195,62
553127594,304,-440,16164,-24,-94,3
553129296,424,-336,15400,-54,-18,-33
553130989,-440,260,16608,-66,100,-19
553132667,-412,240,16244,-70,119,-45
553134351,-440,504,16304,-90,70,-88
553136049,40,584,17000,-62,243,-100
553137787,452,1076,16788,-60,238,-82
553139473,388,848,17292,-33,118,-27
553141181,524,768,17276,-27,159,-25
553142884,1076,296,16308,24,86,-42
553144579,964,600,17352,-130,-82,26
553146281,1124,408,17448,-145,-100,55
553148062,820,532,17316,-115,-180,100
553149780,1284,196,17704,-163,-358,104
553151497,1560,28,16660,-247,-347,90
553153208,496,-40,17176,-237,-331,51
553154927,-148,-248,16124,-163,-180,10
553156648,92,92,15372,-238,-131,-49
553158396,420,224,15816,-276,-30,-65
553160130,120,288,15876,-216,17,-77
553161850,216,304,15880,-152,-16,-110
553163570,540,356,16936,-229,-27,-152
553165298,1496,420,16576,-274,52,-147
553167025,1428,336,16968,-182,68,-122
553168753,1064,416,17296,-189,-144,-158
553170506,1512,464,17532,-287,-95,-141
553172217,2428,280,17380,-262,-51,-147
553173887,1972,-4,16968,-166,-170,-100
553175562,1532,96,16344,-212,-436,-123
553177267,1748,-208,16096,-257,-256,-175
553179027,1952,-92,16144,-266,-153,-180
553180713,800,116,16268,-195,-198,-181
553182403,260,48,15732,-177,-177,-251
553184082,752,292,14364,-217,100,-244
553185762,1540,184,16144,-216,172,-231
553187440,932,472,16392,-223,38,-226
553189188,884,520,16324,-194,100,-242
553190856,1196,660,16072,-180,340,-214
553192512,2096,500,16756,-151,202,-130
553194171,1416,760,17200,-132,141,-114
553195838,1548,128,17084,-63,253,-93
553197493,1684,152,15916,-65,146,-35
553199194,1332,324,16720,-120,111,-10
553200890,2316,144,16628,-189,71,44
553202607,1368,276,17228,-145,53,91
553204317,1296,276,16720,-111,-21,103
553206036,944,528,16144,-187,-113,108
553207753,472,36,17540,-192,114,64
553209531,112,-396,16156,-22,166,55
553211238,-376,260,16416,-22,113,38
553212937,176,352,15700,-162,277,88
553214636,1072,4,16000,-123,378,71
553216357,420,380,16460,-15,303,55
553218118,576,84,16256,-27,327,52
553219941,832,336,16180,-148,243,119
553221624,1004,128,18024,-75,291,96
553223292,1596,28,16848,-54,235,103
553224969,448,-128,18356,-67,27,48
553226643,1232,340,16760,-188,167,47
553228311,1160,-4,17760,-183,-12,59
553230062,776,136,17620,-143,-106,56
553231744,324,92,16860,-176,-79,-3
553233398,696,460,15260,-209,-34,61
553235072,724,236,16096,-194,79,54
553236744,1332,76,15612,-110,-86,-36
553238403,-556,64,16892,-107,-18,-91
553240104,-188,332,15096,-121,138,-80
553241802,436,-200,16128,-137,127,-38
553243524,592,-36,16564,-123,97,-142
553245239,560,-184,15920,-145,241,-167
553246952,696,412,16676,-147,194,-182
553248663,1880,-16,17544,-181,71,-175
553250400,1868,188,16528,-160,36,-213
553252117,1280,188,17416,-165,55,-214
553253825,984,980,16444,-170,-38,-165
553255536,2152,544,17108,-234,-162,-63
553257255,1476,448,17744,-220,-230,-68
553258965,1084,332,16620,-161,-56,-111
553260699,1240,1048,15376,-261,-164,-70
553262410,1728,-468,16488,-260,-133,-38
553264127,1068,-492,15984,-171,-5,-117
553265842,80,-204,15436,-127,138,-124
553267555,288,208,15416,-253,87,-149
553269265,1108,-168,14996,-282,290,-185
553271070,1568,-180,16452,-169,398,-185
553272808,824,-108,17276,-150,215,-238
553274499,1988,364,15620,-256,325,-237
553276158,1680,200,17808,-275,325,-214
553277836,1760,144,17692,-139,179,-232
553279510,1604,180,16960,-148,43,-268
553281169,1320,820,17200,-205,63,-220
553282837,2184,888,16344,-219,107,-81
553284514,1932,308,16072,-97,-172,-49
553286188,1252,368,15104,-140,-2,-76
553287859,-72,656,15564,-260,141,-102
553289535,320,420,16776,-220,89,69
553291276,812,356,15596,-144,102,38
553292942,284,432,15724,-147,235,-16
553294600,220,388,16692,-152,436,56
553296968,1380,240,16592,-91,287,149
553298654,1500,-328,16056,-74,266,85
553300314,424,-480,16376,-130,387,24
553302028,676,84,16068,-163,340,19
553303710,964,428,17764,-221,209,123
553305407,1944,8,17620,-116,309,80
553307100,1472,60,17824,-59,159,46
553308818,1204,376,16624,-160,53,92
553310540,736,84,17140,-177,-9,208
553312276,-36,-236,17068,-155,123,176
553313992,488,-256,16608,-149,120,127
553315754,-56,380,17216,-193,81,154
553317490,288,484,16948,-128,130,276
553319214,604,-40,16624,-70,79,257
553320931,664,-556,16728,-113,129,120
553322706,228,368,16152,-143,289,25
553324382,468,116,17244,-24,263,86
553326050,1548,-252,15808,-7,259,34
553327715,2128,-180,15948,-134,329,-139
553329377,1588,588,17748,-142,135,-101
553331041,1660,404,16816,-81,227,-49
553332749,1332,332,16512,-36,134,-53
553334444,1280,688,17480,-107,-3,-72
553336157,1000,1068,17532,-126,5,10
553337866,880,280,17944,-4,83,92
553339677,856,0,15412,-58,-55,67
553341689,880,436,15008,-248,96,0
553343611,280,692,16896,-170,182,194
553345424,420,104,16436,-87,43,165
553347179,1136,-292,15336,-105,145,84
553348992,1308,-124,16052,-172,259,-75
553350738,708,-236,16612,-98,354,-14
553352460,752,-384,16376,-68,231,-64
553354302,1252,-76,16068,-207,326,-185
553356092,1440,460,16588,-225,398,-176
553357862,1312,588,17676,-151,252,-72
553359602,1160,244,17148,-53,46,-136
553361318,1160,84,17112,-56,178,-169
553362999,1320,472,16912,-72,131,-120
553364708,200,596,18128,-81,-68,-33
553366357,204,488,16908,-108,63,-46
553368050,908,380,16520,-96,83,-37
553369697,860,756,16784,-63,3,-44
553371412,800,52,16288,-79,101,22
553373122,304,-48,16820,-109,125,-5
553374794,708,-48,16068,-93,225,-112
553376498,968,436,15772,-51,173,-98
553378282,676,132,16680,-69,240,-57
553379991,980,128,16168,-59,342,-53
553381725,1240,140,16556,-46,133,-81
553383397,956,380,17712,-50,122,-59
553385144,1708,352,16032,-37,260,-16
553386839,532,560,17176,-24,42,28
553388534,688,408,16460,-59,89,12
553390236,1144,496,16716,-73,197,50
553391939,920,708,17596,-38,140,98
553393640,1076,488,16720,-67,25,91
553395368,952,180,16988,-31,-150,55
553397069,1400,280,15820,-20,30,106
553398767,736,-204,16576,32,169,125
553400473,-88,-456,17284,-29,93,103
553402176,-12,-576,16752,-40,-5,60
553403873,460,-52,16800,68,258,28
553405604,1288,-204,17096,99,215,42
553407339,1976,-248,16592,-6,132,-42
553409061,1680,-172,17244,-8,116,-76
553410776,1668,104,16476,161,145,-24
553412488,1560,108,16752,171,34,-7
553414219,824,420,17460,39,88,-37
553416146,1200,428,16856,36,95,-14
553417921,248,996,17992,246,-36,73
553419632,1128,160,16944,272,-49,119
553421321,1452,-224,15396,104,167,82
553423010,236,152,17144,136,96,71
553424763,856,-24,16164,253,61,109
553426528,1640,-744,15088,217,83,52
553428274,848,-544,16672,90,261,-33
553429986,1356,-492,15348,53,193,-78
553431673,616,-56,16960,96,135,-88
553433372,308,40,17028,136,318,-125
553435137,1020,316,16208,100,330,-95
553436931,44,696,17544,5,221,-156
553438650,64,888,17432,107,258,-56
553440345,880,796,16820,258,230,63
553442027,832,984,17148,212,167,77
553443715,780,488,16264,27,89,36
553445410,788,768,16576,95,89,151
553447171,540,440,17244,209,139,210
553448871,1308,-148,16176,196,65,206
553450579,548,-76,16740,93,-33,94
553452277,716,-344,17512,193,53,97
553453981,1568,-500,16732,279,-3,81
553455686,1032,-360,17196,163,-21,-112
553457413,616,-408,16352,62,157,-211
553459123,300,-192,17244,98,47,-224
553460827,536,-132,17388,241,3,-255
553462525,908,180,15580,150,128,-300
553464242,352,532,15712,54,105,-277
553465959,20,972,16280,92,153,-222
553467659,960,1228,16064,244,13,-76
553469952,732,1312,16828,131,111,-16
553471645,352,1124,17236,50,99,14
553473442,1136,1012,16724,122,-2,120
553475201,1376,436,16236,170,2,168
553476932,984,396,16452,114,125,162
553478637,848,252,15740,35,22,127
553480322,276,-288,17628,98,-88,141
553481999,1552,-604,15544,127,81,137
553483662,1420,-864,15816,151,165,40
553485332,620,-532,16496,-5,184,-108
553487001,960,-104,16632,3,108,-98
553488721,1156,-156,17076,115,243,-116
553490417,1536,248,16156,85,293,-130
553492131,1000,216,17416,-9,120,-166
553493840,932,852,17208,-28,183,-132
553495558,1332,824,16676,229,178,-27
553497275,1324,348,17176,218,-24,-4
553499014,1324,404,16300,138,38,-19
553500726,776,720,16552,148,150,40
553502435,892,-180,17164,304,14,128
553504145,1396,-240,16088,314,-37,101
553505865,1516,72,16232,112,118,8
553507584,1264,64,16772,198,248,46
553509364,1980,-696,16388,272,79,15
553511067,1560,-932,16556,281,27,-59
553512768,1656,-480,15748,119,320,-203
553514467,588,160,16580,98,300,-194
553516203,1568,-92,16904,145,224,-161
553517960,1448,116,16520,186,265,-176
553519789,1964,392,16272,186,290,-226
553521477,792,776,17140,93,88,-185
553523143,1180,972,16420,115,130,-144
553524833,856,580,17168,224,267,-52
553526517,456,460,16492,148,207,-85
553528189,28,948,16760,75,237,-19
553529910,1056,544,16920,125,244,22
553531608,1012,-52,16860,230,178,41
553533324,824,148,16740,47,286,-92
553535035,668,228,17440,4,201,-127
553536744,1640,-124,16860,102,279,-156
553538457,2312,-428,15968,241,212,-216
553540202,1528,-844,16368,108,84,-323
553541917,744,-740,16212,44,176,-380
553543627,1112,-536,15600,89,360,-378
553545339,444,-84,16976,62,185,-444
553547048,340,16,17188,14,83,-476
553548756,-156,776,17140,-91,228,-458
553550511,416,940,17928,84,105,-353
553552232,480,780,16956,99,-57,-268
553553943,344,948,16152,9,66,-244
553555654,-432,944,16352,-23,82,-225
553557364,236,732,17612,-25,-104,-130
553559075,1176,1072,15844,-24,-17,-81
553560815,468,796,17412,-24,85,-41
553562525,400,448,16904,-38,-177,-64
553564240,312,228,16916,-97,-89,-52
553565955,524,164,16896,-93,-3,-45
553567663,-24,132,16304,-84,127,-41
553569370,476,-132,15764,-130,-43,-155
553571157,564,28,17412,-164,41,-201
553572832,1372,208,16600,-135,56,-144
553574553,904,244,16228,-105,-67,-130
553576277,140,400,17440,-193,-207,-179
553577977,972,756,16444,-199,-123,-180
553579669,1368,616,17192,-139,-111,-97
553581351,1044,216,16988,-98,-160,-89
553583089,756,96,16340,-130,-169,-138
553584764,944,216,16988,-210,-117,-210
553586445,1200,168,16408,-146,-138,-123
553588119,988,108,15952,-152,-188,-177
553589788,532,88,16748,-198,-125,-211
553591456,1296,264,15364,-254,45,-294
553593183,1680,104,16448,-177,39,-286
553594887,1456,-20,17060,-105,-8,-298
553596601,1204,4,16584,-61,3,-346
553598314,1760,176,16620,-108,11,-319
553600055,1684,220,15972,-174,0,-323
553601773,1740,76,16400,-162,-1,-244
553603513,1196,440,17016,-161,-10,-214
553605225,1324,796,16188,-174,46,-187
553606931,1436,868,17304,-202,-47,-178
553608653,1368,408,17236,-105,13,-110
553610374,944,96,15948,-11,35,-104
553612088,1268,188,15772,-111,63,-91
553613850,1244,196,17108,-150,44,-74
553615635,1504,4,16456,-147,189,-80
553617406,1708,-196,16112,-38,44,-84
553619143,1292,-252,16728,-114,30,-208
553620853,2116,-232,15800,-183,180,-221
553622549,912,264,16780,-140,273,-180
553624340,1020,128,16480,-52,78,-230
553626035,1192,-184,16132,-98,110,-250
553627708,1496,308,16420,-178,295,-329
553629390,1248,304,17416,-100,217,-249
553631070,884,120,17704,-63,43,-237
553632744,904,-32,16104,-98,118,-317
553634424,648,384,17256,-148,177,-280
553636132,372,492,17244,-121,46,-195
553637847,584,252,17140,-82,-60,-174
553639590,652,-92,16852,-83,116,-209
553642452,32,876,16792,-203,15,-228
553644198,220,552,17368,-162,14,-157
553645961,540,548,17204,-118,-9,-141
553647676,392,200,16452,-93,61,-197
553649372,128,464,15924,-212,151,-224
553651064,212,496,16440,-183,0,-90
553652778,384,276,16200,-104,63,-61
553654542,588,244,16216,-148,54,-114
553656250,20,788,16820,-290,26,-99
553657966,44,724,16924,-275,37,-56
553659674,616,464,17168,-135,8,29
553661381,620,332,16608,-155,-127,-51
553663111,-48,-148,16856,-260,116,-94
553664847,-224,520,17668,-233,1,-25
553666558,684,-288,17052,-175,-99,-2
553668246,1324,-592,16052,-193,-43,-148
553669931,628,-296,16012,-266,16,-173
553671639,228,-100,17376,-255,-21,-191
553673333,656,-244,17036,-201,-35,-177
553675032,1180,-544,17004,-154,-67,-245
553676751,904,252,16228,-216,137,-327
553678458,1084,556,16736,-242,-50,-319
553680136,1800,352,17240,-207,-51,-315
553681792,1996,256,17244,-149,-20,-320
553683445,1460,776,16172,-99,13,-285
553685154,1132,824,16364,-199,-210,-235
553686976,1608,1040,15544,-241,-55,-188
553688825,1584,312,16556,-128,-26,-185
553690569,756,788,16576,-174,15,-126
553692263,916,988,16388,-283,8,-102
553693977,1672,712,15988,-312,31,-68
553695760,1896,116,17168,-95,59,-65
553697442,1352,32,15928,-137,133,-91
553699118,1156,84,15364,-204,73,-92
553700793,1004,-80,14920,-251,391,-54
553702464,1060,-824,15176,-148,369,-57
553704136,104,-376,16744,-205,376,-54
553705855,564,-304,16372,-247,449,-70
553707550,1628,436,16112,-251,477,-56
553709266,1940,412,18368,-135,310,-18
553710981,2280,220,16772,-99,260,-8
553712691,1120,112,17936,-119,233,-67
553714439,1588,164,17356,-167,287,-90
553716189,2312,0,17372,-133,64,-102
553717955,1756,264,16664,-78,170,-114
553719769,1208,-36,17136,-31,122,-134
553721559,1336,-444,16168,-169,23,-143
553723281,1032,236,15968,-142,162,-200
553724989,408,8,16660,-80,300,-161
553726776,132,72,15972,6,129,-144
553728467,264,-360,15400,-179,308,-295
553730315,312,600,16192,-193,423,-236
553732060,-400,368,17196,-73,317,-134
553733748,112,460,15556,-84,267,-155
553735468,-176,696,17652,-291,388,-171
553737220,588,1444,17068,-229,430,-69
553738933,308,1044,17944,-141,326,24
553740616,672,920,17292,-55,178,51
553742301,1004,36,16880,-232,50,-24
553743981,764,568,17064,-215,84,13
553745691,644,508,17188,-145,97,136
553747451,616,220,16700,-99,-170,199
553749154,836,-464,16960,-189,-49,56
553750876,1340,-240,15832,-161,34,29
553752593,676,-360,16824,-95,-97,58
553754306,-32,-544,16228,-103,-76,-23
553756057,-236,-844,16492,-156,158,-215
553757807,60,-380,15732,-181,120,-274
553759525,-220,-124,16944,-145,184,-253
553761245,1416,-136,15612,-44,340,-241
553762960,996,-248,17436,-68,265,-264
553764678,1760,-224,16324,-192,40,-374
553766412,1396,292,17096,-215,176,-315
553768126,1704,704,16036,-78,9,-211
553769859,1460,272,16924,-126,-52,-228
553771614,1832,756,16608,-261,-164,-348
553773362,1364,896,17896,-165,-58,-218
553775076,1628,452,15784,-62,-219,-150
553776845,1004,264,15816,-121,-174,-205
553778659,172,564,15980,-255,28,-283
553780449,-320,592,17304,-111,95,-156
553782162,672,264,15492,-69,91,-81
553783834,1208,-200,15836,-112,103,-130
553785497,1084,100,15596,-240,396,-161
553787158,876,308,16880,-157,278,-60
553788816,1892,-76,15436,-150,299,-12
553790498,1832,-384,16116,-214,355,-47
553792195,1644,132,15928,-302,501,-108
553793891,1164,384,18176,-281,381,-78
553795588,2664,504,16880,-183,336,-6
553797283,3168,32,16604,-103,171,-18
553799041,1500,276,17700,-126,144,-57
553800749,1620,228,17656,-118,136,-62
553802466,1888,304,16428,-60,-7,16
553804178,1576,88,16376,23,87,-59
553805888,1328,-12,14804,-46,307,-126
553807597,76,844,17856,-9,208,-137
553809333,1172,8,16300,140,259,-102
553811045,1516,-576,15172,143,456,-245
553812758,236,-304,15948,41,488,-310
553815304,-164,-468,15848,-92,562,-144
553817047,268,-908,17152,-47,573,-154
553818822,696,-268,16420,-89,481,-123
553820623,292,532,17472,-204,395,-94
553822336,356,532,16272,-192,548,-29
553823999,448,788,18096,-71,281,90
553825717,344,1000,18644,-19,192,145
553827374,992,488,17664,-5,230,163
553829027,1136,1100,17220,90,77,231
553830722,1448,948,17096,129,-32,278
553832415,892,252,16640,42,139,282
553834129,-148,844,17272,45,-14,290
553835836,-652,848,16276,105,87,316
553837555,1000,276,16608,290,-131,354
553839270,352,-300,16404,274,64,282
553841005,84,-992,17848,231,223,139
553842716,-368,-628,17648,262,-37,111
553844426,760,-1088,16432,325,59,119
553846135,1344,-788,14312,160,401,13
553847844,524,-828,16988,78,317,-63
553849552,1052,-52,17160,0,130,-174
553851279,2292,540,17024,214,64,-162
553852993,1680,500,16796,234,-74,-180
553854705,1772,148,15160,76,-92,-231
553856415,368,996,17532,-51,-182,-280
553858126,900,976,17876,115,-104,-133
553859833,928,868,16852,165,-153,-107
553861564,224,1140,17076,34,-251,-175
553863283,404,800,16280,-60,-209,-119
553865005,664,216,16340,202,-145,-3
553866794,140,88,15732,263,-65,-21
553868561,-228,-96,14548,14,89,-11
553870283,-108,32,16132,-88,156,-39
553872125,736,204,17996,173,184,-16
553873826,1996,-100,16668,215,151,-14
553875509,1540,-176,16760,19,103,-114
553877190,1280,-16,17200,-15,189,-203
553878919,1312,276,17708,69,39,-167
553880647,1236,32,18212,231,-67,-147
553882420,1812,-324,16688,89,108,-190
553884114,1848,104,16700,46,-53,-245
553885814,1828,272,17504,139,-142,-223
553887510,2384,-276,15688,199,-178,-164
553889204,928,60,16036,22,-71,-201
553890898,504,448,16104,-28,-90,-235
553892654,1260,652,15712,92,-165,-174
553894361,1212,348,15536,247,77,-103
553896077,752,336,16228,154,162,-110
553897788,496,364,16364,75,32,-129
553899497,1020,196,16912,213,80,-86
553901206,1716,-532,15368,321,295,-32
553902940,588,-68,14816,188,330,-46
553904649,-608,172,17104,-76,518,-116
553906360,608,260,17352,73,350,5
553908073,2236,-120,16696,344,374,-81
553909783,2852,-44,16640,288,442,-134
553911494,1752,416,17228,54,220,-207
553913206,1252,448,18472,186,88,-118
553914920,3256,-88,15924,299,261,-89
553916626,2072,396,16620,234,81,-204
553918336,752,860,16176,50,189,-182
553920096,640,220,15940,183,144,-111
553921838,-144,236,17032,289,80,-120
553923641,-212,216,15968,223,284,-127
553925309,-320,460,15568,95,313,-100
553926969,-720,704,17296,149,301,-76
553928620,772,328,16252,238,355,-38
553930269,744,496,16692,242,286,8
553931918,1420,284,15272,175,455,-25
553933607,980,232,16824,73,182,-40
553935299,212,412,18512,213,149,-8
553937010,1584,64,16936,287,245,-7
553938720,1104,68,17584,222,116,-11
553940429,844,-128,17260,92,72,-48
553942137,1196,88,15492,139,5,-28
553943870,236,92,17396,205,99,7
553945579,704,52,16100,147,57,-15
553947294,-156,288,16248,51,-114,-77
553949004,-492,156,17176,208,102,-59
553950717,724,-144,15836,267,105,-26
553952431,496,-52,16308,180,-15,-137
553954171,204,252,16228,44,263,-173
553955882,272,460,16896,120,174,-143
553957591,672,504,17448,207,66,-115
553959304,1244,416,16108,126,173,-159
553961016,524,396,17152,61,98,-147
553962723,92,416,17312,124,76,-174
553964444,1580,172,15604,179,-2,-97
553966170,872,628,16656,55,117,-36
553967933,108,472,17520,-24,-79,15
553969729,664,228,16812,-41,-173,29
553971449,924,220,17192,48,-3,35
553973161,860,448,16588,47,100,12
553974916,972,212,15504,-69,14,-76
553976633,496,684,16936,-45,62,-91
553978320,1648,144,16720,87,148,-17
553980087,1916,220,15820,137,106,-67
553981837,1740,8,15908,56,112,-146
553983537,1180,80,16928,-50,77,-191
553985230,1920,-12,16948,94,98,-132
553987567,1572,188,16324,100,23,-149
553989261,1264,-176,16808,-77,67,-211
553990944,2212,284,16372,-44,123,-230
553992626,2116,312,17528,29,48,-202
553994305,2400,276,16332,-3,-19,-195
553996120,1568,228,15904,-123,60,-186
553997825,1104,312,16384,-92,169,-188
553999537,1220,44,16260,35,74,-147
554001248,1084,216,15704,36,92,-214
554002955,-216,276,16068,-37,376,-204
554004663,176,636,15744,-4,427,-141
554006395,1024,304,17088,84,295,-115
554008107,1772,180,16608,64,375,-154
554009820,1612,304,16424,40,459,-178
554011527,1368,292,17592,30,273,-198
554013246,1992,36,16976,42,171,-115
554014976,1788,164,16572,21,215,-132
554016780,1068,-84,17260,25,225,-136
554018484,1160,344,16412,-45,-61,-133
554020185,1148,292,17120,-40,-15,-139
554021908,672,-20,17144,31,75,-95
554023638,580,160,16204,6,22,-107
554025336,-948,244,16556,-86,-61,-174
554027048,-452,464,16792,-109,219,-81
554028744,-124,324,16932,-38,199,-71
554030566,-128,336,15952,-39,83,-100
554032390,-352,524,16372,-144,216,-98
554034135,292,600,16560,-133,243,-90
554035830,520,424,17356,-109,191,-85
554037601,1300,708,16284,-116,152,-82
554039289,680,492,17624,-121,-59,-129
554040968,604,180,18112,-104,-88,-111
554042643,1672,0,17208,-106,-164,-102
554044326,524,-312,17292,-134,-244,-167
554046003,-316,-144,16920,-187,-154,-196
554047728,352,80,16344,-206,-146,-201
554049462,584,292,17156,-242,-181,-233
554051191,476,536,16728,-154,-82,-201
554052909,440,312,15612,-93,-151,-212
554054624,320,280,15920,-166,-171,-237
554056334,1032,484,16112,-261,-140,-263
554058075,700,396,16328,-146,89,-179
554059786,484,204,17192,-84,-26,-152
554061495,908,332,15756,-210,-1,-197
554063207,1576,684,16768,-271,3,-156
554064925,360,220,17488,-113,-55,-84
554066726,800,32,16312,-110,-134,-106
554068594,120,312,16504,-216,1,-161
554070290,1192,248,17052,-282,101,-141
554071979,1568,-136,17836,-157,-26,-121
554073701,1972,416,16880,-124,-107,-124
554075385,1888,-8,16792,-230,-137,-164
554077067,1952,556,16352,-306,-30,-134
554078753,1640,668,17372,-266,-88,-123
554080493,1396,404,16764,-132,-326,-71
554082240,1164,-376,15476,-196,62,-141
554083959,1104,292,15412,-258,150,-199
554085717,388,284,16732,-264,53,-169
554087430,1688,92,15048,-112,149,-153
554089216,1420,-460,16044,-143,219,-258
554090910,824,468,16168,-310,188,-322
554092593,1088,236,16176,-294,289,-319
554094274,1452,156,17160,-131,293,-300
554095952,1676,-132,17156,-77,371,-408
554097634,1856,476,17468,-149,66,-401
554099369,1360,280,18452,-243,254,-376
554101069,2304,192,15992,-57,188,-328
554102779,1916,-264,16408,-84,-21,-322
554104488,1624,308,16332,-212,15,-341
554106196,620,976,16600,-326,98,-239
554107905,196,888,17288,-120,60,-111
554109687,980,432,15892,-58,51,-60
554111389,-256,424,16144,-85,30,-124
554113086,-552,628,16076,-210,405,-78
554114785,244,288,16024,-93,272,58
554116483,148,-104,17176,-50,210,49
554118178,904,116,15576,-122,393,-25
554119945,1192,-72,17048,-182,348,-15
554121679,1068,-248,17736,-166,150,-49
554123411,1704,-588,16528,-126,167,-109
554125105,1424,-256,17228,-151,206,-239
554126774,484,-296,17664,-207,106,-328
554128437,580,-60,17332,-218,35,-318
554130167,1176,-172,17152,-150,-2,-333
554131847,1064,-236,16212,-97,-31,-417
554133528,64,392,16028,-194,12,-441
554135210,-652,852,17672,-229,-245,-359
554136892,268,764,16652,-184,-2,-248
554138570,1084,700,16176,-100,34,-242
554140250,-32,1156,16760,-139,11,-235
554141984,-60,1312,16464,-193,-91,-132
554143696,444,1108,15944,-177,-10,-47
554145415,380,416,17492,-83,-5,3
554147138,-132,184,15144,-184,235,-9
554148853,-316,496,16632,-281,252,9
554150579,324,528,16572,-232,303,77
554152300,2192,-480,16260,-99,83,25
554153998,1776,-476,16480,-188,213,-93
554155730,1444,-312,17200,-258,70,-174
554157424,2160,-196,15752,-257,66,-190
554160182,2756,-284,16564,-182,47,-310
554161928,1344,224,17476,-224,-3,-339
554163636,2052,428,15636,-228,-4,-302
554165342,1756,104,16928,-204,-107,-258
554167119,560,500,16664,-160,-62,-222
554168872,-300,624,16096,-132,42,-184
554170571,-276,932,15920,-183,-34,-173
554172272,652,416,16572,-209,141,-128
554174052,1532,320,15292,-81,251,-91
554175733,496,84,16076,-126,258,-76
554177406,76,-32,15828,-157,272,-120
554179077,1096,-112,16364,-250,284,-101
554180788,1580,-244,16300,-96,359,-155
554182506,1300,-424,16308,-137,453,-197
554184190,868,-48,16804,-235,228,-238
554185876,1216,-196,17620,-256,317,-217
554187567,2256,-76,16444,-184,269,-171
554189261,1348,240,17240,-196,174,-209
554190953,500,852,17096,-283,76,-246
554192644,1676,1032,15764,-278,218,-203
554194399,1380,1184,16988,-188,164,-148
554196109,616,956,16656,-170,178,-89
554197816,24,1112,15568,-161,193,-18
554199524,420,580,15544,-117,296,6
554201233,672,236,16200,-131,218,86
554202941,324,100,16688,-109,288,161
554204674,72,-328,16484,-96,353,142
554206383,696,-640,15372,-141,324,55
554208158,792,-624,16272,-193,325,-32
554209894,864,-844,17628,-142,572,-38
554211643,916,-964,17196,-72,495,-93
554213411,2004,-1004,16584,-112,288,-211
554215165,2536,-148,16312,-188,342,-219
554216900,1788,52,17448,-150,286,-239
554218605,1276,324,18056,-145,164,-262
554220312,1708,580,16596,-143,67,-222
554222022,1304,1188,16480,-106,168,-223
554223751,152,1192,17088,-32,-19,-74
554225519,632,920,15932,-55,6,-50
554227225,176,488,16492,-67,56,-48
554228876,-12,800,16132,3,183,96
554230530,608,244,15232,-11,240,136
554232184,-192,-408,17220,-82,270,60
554233831,1484,-500,15488,-173,440,62
554235549,1156,-884,16740,-114,319,8
554237257,696,-72,17160,-170,418,-44
554238971,1048,-132,17176,-165,424,-55
554240682,1896,-376,17392,-94,335,-139
554242397,1808,-180,17560,-56,299,-209
554244121,2272,296,16432,-58,207,-189
554245872,1520,472,17360,-96,112,-143
554247596,1484,612,15908,-79,176,-134
554249315,1204,700,16800,-88,-44,-146
554251030,296,1236,17408,-53,-22,14
554252741,-520,372,16188,36,125,43
554254451,-260,164,15384,36,147,34
554256196,-600,-200,17184,8,94,-42
554257918,240,56,15792,11,386,35
554259633,-464,56,17584,68,285,78
554261344,1416,-440,16292,15,247,3
554263056,2712,-808,15944,-63,185,-152
554264785,1660,-252,16580,-24,298,-101
554266669,412,-284,17408,9,111,-156
554268410,1504,-612,16856,-2,34,-216
554270099,1584,-204,16436,-59,54,-336
554271784,396,852,17580,-21,128,-253
554273465,416,944,17708,-3,-31,-167
554275145,660,784,16872,-17,-74,-150
554276879,548,776,16296,34,43,-146
554278581,160,1044,16212,55,45,-115
554280309,72,812,16256,53,-45,-22
554282049,812,-8,16360,32,128,4
554283775,1100,284,15820,112,75,8
554285490,468,180,16552,85,39,-23
554287370,1320,-12,16128,42,135,34
554289168,2168,-308,16156,63,91,-8
554290907,1896,-444,16936,7,1,-171
554292612,2020,-396,15968,-35,77,-213
554294311,716,260,17104,-1,122,-193
554296131,1156,-128,17164,128,39,-164
554297986,1480,52,16240,13,33,-273
554299699,956,784,16660,19,130,-224
554301379,376,720,17104,99,172,-109
554303053,988,488,15460,151,45,-24
554304728,736,268,16788,19,35,-94
554306399,1324,424,15732,4,195,-55
554308131,1268,1096,15740,134,157,56
554309834,1368,140,17712,157,45,128
554311550,1904,-8,16276,142,-17,77
554313296,828,-364,17148,92,138,16
554315038,1012,-412,17300,162,238,67
554316769,2132,-888,15620,138,48,-21
554318494,1512,-732,16840,121,149,-117
554320186,1892,-548,16532,120,387,-217
554321858,776,320,15752,157,63,-219
554323530,476,304,16180,157,138,-160
554325250,1364,-76,16288,184,255,-196
554326990,1072,32,16412,197,131,-282
554328709,328,948,16868,136,220,-142
554330412,40,1036,17176,124,105,-52
554332591,-244,408,17464,214,239,38
554334264,212,572,17020,105,188,60
554335923,556,1140,16068,69,83,154
554337585,344,1144,17380,87,227,228
554339307,1624,532,16644,218,105,288
554340990,1616,88,16600,203,-30,171
554342713,952,324,17368,226,121,137
554344462,1288,164,16480,263,97,184
554346191,1204,-672,16584,288,-10,83
554347930,1148,-792,16656,134,246,-93
554349689,860,104,15576,151,294,-85
554351408,184,-36,17276,175,148,-37
554353128,1428,-616,15596,181,116,-76
554354832,1052,-296,16436,113,227,-187
554356534,-64,228,16868,135,184,-201
554358252,308,752,15792,127,111,-49
554359983,564,236,17996,137,-23,-18
554361727,776,688,17140,75,177,-109
554363458,1080,1052,16480,94,121,-110
554365178,272,960,17640,128,68,21
554366928,488,72,16656,170,129,-28
554368689,1156,144,15416,140,130,-122
554370494,648,-108,16464,110,180,-135
554372178,1432,-4,16472,109,93,-111
554373850,1924,-132,16724,172,147,-156
554375528,2268,-268,15904,178,138,-264
554377212,1380,-176,15784,37,9,-377
554378887,204,328,17136,39,119,-306
554380672,368,212,16628,157,166,-246
554382418,664,48,16460,113,66,-317
554384152,-124,564,17040,26,122,-330
554385887,384,1024,16332,97,342,-202
554387612,1264,776,16588,188,65,-64
554389330,1200,552,16460,161,119,-79
554391127,1296,372,15764,-18,206,-132
554392828,212,828,17556,39,121,-71
554394515,940,516,16684,72,24,-28
554396207,1268,16,17332,115,19,-90
554397899,2232,-344,17180,128,163,-202
554399585,2140,-380,15836,117,81,-215
554401329,1064,-260,17868,139,-32,-202
554403042,1816,-808,15656,175,122,-241
554404759,1432,-688,14904,70,202,-350
554406483,-96,-336,15672,-34,264,-391
554408205,-232,512,16144,2,250,-273
554409925,368,308,17328,259,275,-194
554411719,444,208,16596,199,418,-252
554413440,44,640,17140,96,192,-225
554415158,-184,1548,17804,120,326,-106
554416871,1580,416,17240,258,406,43
554418565,2020,684,15792,144,160,-13
554420260,1564,792,16032,66,314,-18
554421957,1768,524,16352,163,268,82
554423629,648,152,17272,273,34,180
554425315,1168,-304,15404,231,151,91
554427026,684,-276,17404,77,207,-52
554428726,120,84,17660,114,227,-44
554430397,896,-140,16440,133,68,-25
554432123,632,-240,17956,158,135,-94
554433794,1560,-264,15788,54,307,-209
554435479,148,132,17032,9,150,-206
554437159,380,424,16784,15,188,-211
554438834,1008,324,16388,65,172,-148
554440505,804,508,17140,110,195,-165
554442224,852,740,16304,-21,112,-163
554443929,-320,1296,16904,-38,-97,-11
554445654,-804,680,18612,62,90,91
554447374,520,460,16116,39,20,107
554449083,-296,652,17404,-68,-115,51
554450792,-80,416,17584,-22,142,63
554452527,1236,-436,15664,77,2,79
554454236,368,-596,16888,46,-74,-12
554455955,1104,-800,15676,-122,103,-147
554457704,788,-528,16512,-66,-27,-209
554459421,1304,-468,15664,-23,132,-231
554461136,1648,-520,16676,-61,37,-348
554462877,736,-116,16564,-107,51,-464
554464602,312,228,17192,-70,-16,-547
554466387,260,736,16480,-97,-108,-521
554468154,396,732,17920,-83,-96,-480
554469894,276,1084,16652,-130,15,-411
554471624,48,1324,17064,-182,-188,-334
554473427,456,1536,16188,-187,-181,-307
554475123,976,1012,16532,-153,-33,-172
554476806,268,1044,16120,-139,-82,-81
554478488,-404,672,16696,-195,-93,-64
554480170,656,408,15804,-249,-149,-1
554481872,1444,-224,16448,-196,-59,6
554483641,1520,-188,17236,-223,-60,-60
554485342,1812,-468,16408,-251,-115,-77
554487047,1384,-372,17552,-267,-121,-181
554488742,1860,-612,16612,-268,-47,-309
554490436,2340,-320,16644,-268,-112,-338
554492135,1588,-432,17020,-321,7,-452
554493891,1680,188,15908,-252,1,-472
554495595,2052,496,16360,-265,-88,-482
554497306,2180,896,16340,-246,-70,-470
554499015,1172,972,16936,-163,33,-345
554500725,284,1056,17220,-67,-162,-267
554502433,896,1324,16048,-141,-150,-181
554505310,892,840,15596,-142,209,-18
554507077,-128,832,16600,-28,79,79
554508813,736,204,15772,-83,115,82
554510538,1196,-412,15708,-60,534,13
554512254,1108,-388,16924,-41,423,-28
554513977,1072,-692,17244,-30,184,-52
554515702,2380,-464,15808,-74,432,-137
554517408,1612,-584,18448,-118,396,-155
554519102,2136,316,16940,-207,119,-210
554520795,1344,-48,17100,-182,166,-235
554522487,524,140,17200,-96,131,-194
554524181,964,320,15704,-103,124,-142
554525876,660,856,16832,-222,34,-217
554527570,-104,804,17768,-151,119,-96
554529283,-228,712,17088,-75,17,-94
554530965,-596,784,16840,-87,90,-44
554532620,-88,1152,16232,-190,87,-17
554534279,64,560,16436,-219,166,15
554536024,520,184,16628,-64,265,39
554537704,1528,156,15376,-180,111,-10
554539399,1144,-116,16948,-240,73,-54
554541090,1972,496,16568,-245,195,-93
554542775,960,-84,17828,-54,-58,20
554544465,1032,-312,17216,-74,-76,-78
554546178,1340,-640,16356,-191,-103,-135
554547974,420,140,17116,-257,99,-155
554549920,-112,252,17324,-164,-23,-118
554551730,676,64,15672,-190,153,-117
554553453,656,428,16380,-172,17,-179
554555197,948,120,15472,-172,121,-186
554556952,188,264,16936,-159,17,-169
554558654,352,264,16296,-128,198,-159
554560330,856,-96,15612,-99,265,-167
554562001,932,180,17016,-168,40,-211
554563670,484,560,17752,-252,140,-194
554565339,1336,868,17072,-181,24,-110
554567078,1160,-216,17276,-123,-50,-130
554568811,412,200,16552,-215,72,-261
554570497,32,564,16464,-225,152,-248
554572180,-212,764,17064,-184,57,-182
554573862,1060,-244,16776,-152,-14,-218
554575545,1332,80,16172,-216,113,-320
554577296,840,388,16756,-237,146,-305
554579005,920,600,15532,-232,-75,-240
554580735,1104,240,17716,-247,-121,-172
554582469,1144,204,16272,-217,41,-250
554584198,496,200,16440,-203,34,-258
554585912,72,360,16564,-244,-47,-255
554587719,1064,-108,16784,-298,34,-215
554589410,1384,216,17140,-246,41,-187
554591074,1220,88,16304,-209,84,-152
554592739,1032,340,16272,-330,-105,-180
554594402,1288,296,15792,-376,48,-193
554596067,1636,640,17112,-275,194,-137
554597774,1548,172,16284,-121,89,-173
554599469,916,512,16484,-160,-2,-205
554601183,1468,248,15604,-214,179,-157
554602896,2016,-24,16020,-154,176,-106
554604606,536,-320,16348,-98,169,-61
