Time_us,Accel_X,Accel_Y,Accel_Z,Gyro_X,Gyro_Y,Gyro_Z
3746457565,3776,0,16320,-6,195,32
3746459491,4472,268,16044,11,143,-45
3746461239,4604,224,16144,-35,242,-144
3746463008,3448,768,16504,53,335,-231
3746464863,3116,744,16428,47,184,-142
3746466761,3032,1188,16460,-14,69,-182
3746468478,3312,1208,16652,-86,134,95
3746470155,4056,540,16480,7,77,72
3746471820,4040,232,16248,-23,40,60
3746473484,3784,684,16056,-13,86,-219
3746475154,3956,1856,16556,-89,175,85
3746476869,3560,680,16808,-59,28,224
3746478572,3876,-692,16148,0,56,47
3746480389,3640,-1328,16404,188,160,-298
3746482316,3872,868,16636,171,100,-332
3746484166,3452,1828,16076,27,113,-20
3746485920,4248,2140,16184,-62,182,-56
3746487725,4008,1868,16652,-71,89,-11
3746489417,3512,552,16456,-64,-34,-17
3746491090,3268,596,16728,-87,73,-22
3746492761,3284,376,16536,-14,36,9
3746494434,3624,688,16160,-28,-12,62
3746496106,4456,184,15996,-16,30,4
3746497823,5108,444,16116,22,147,-117
3746499521,4164,676,16056,47,97,-217
3746501275,3236,1540,16032,23,105,-296
3746503038,3284,1992,16508,-56,101,-34
3746504772,3780,1296,16464,-29,26,182
3746506519,4348,572,16392,-103,78,-107
3746508257,3784,820,16524,-208,-34,-42
3746509960,3456,656,15984,-54,23,-71
3746511667,3576,928,15948,-74,-36,6
3746513369,4016,740,16360,-177,104,-136
3746515067,3668,968,16112,-110,100,-79
3746516782,4112,948,15896,-58,-4,-33
3746518589,4408,892,16100,-140,16,-92
3746520310,4240,144,16188,-140,183,-72
3746522074,3616,292,16436,0,169,-250
3746523852,3624,644,16408,-75,-9,-128
3746525637,3600,728,16584,-105,86,-142
3746527381,3668,1244,16704,-20,31,-10
3746529218,4304,940,15996,-89,-81,-65
3746530931,4632,1412,15740,-225,73,-9
3746532665,5008,1300,15636,-216,186,73
3746534408,4488,396,15828,-186,181,106
3746536168,4092,-1240,15948,-99,161,-10
3746537887,3668,-312,16596,47,308,-364
3746539606,3624,40,16836,91,209,-258
3746541291,3908,892,16360,90,99,-181
3746542980,4180,1432,16168,-49,200,-98
3746544666,4552,1516,15860,-14,243,-104
3746546347,4256,1748,16284,-79,135,-15
3746548058,3620,904,15840,-132,117,30
3746549828,3180,892,16324,-104,183,-26
3746551537,3504,668,16308,-87,80,85
3746553273,4136,-288,16160,-68,45,109
3746555006,4612,-492,16152,-16,284,-58
3746556724,4300,236,16220,131,284,-320
3746558436,3812,880,16248,63,219,-231
3746560229,3100,904,16240,3,236,-209
3746561968,3024,1872,16456,9,164,-104
3746563671,3248,1540,16348,-40,34,75
3746565389,3808,848,16376,-97,82,76
3746567103,4004,160,16248,-45,115,-47
3746568802,3564,948,16140,-28,37,-128
3746570527,3348,868,16384,-78,-6,18
3746572292,3796,180,16220,-37,123,66
3746574053,4096,-604,16032,100,98,-8
3746575787,4204,-296,16228,188,123,-306
3746577489,4280,968,16244,122,201,-336
3746579184,3544,1244,16308,76,222,-115
3746580910,3484,2160,16252,13,63,-14
3746582605,3492,1616,16768,-104,-5,112
3746584299,3540,720,16292,-33,122,-87
3746585991,3452,572,16692,-13,-65,45
3746587727,3964,808,16196,-11,-39,-32
3746589423,3988,976,16252,-70,55,43
3746591193,3992,284,16052,34,101,-60
3746592919,4188,868,16012,-12,4,-96
3746594647,4080,788,15568,-6,177,-136
3746596363,3804,1088,16112,43,210,-246
3746598071,3220,1224,16748,2,-15,-156
3746599778,3780,884,16420,-77,47,-50
3746601541,4044,956,16512,-107,153,-85
3746603254,3732,1112,16660,-131,-15,-65
3746604964,3672,960,16472,-180,-97,34
3746606678,3996,464,15872,-92,80,16
3746608479,3972,884,16000,-84,97,-138
3746610267,3896,592,16236,-135,0,-32
3746611995,4032,832,16028,-105,72,-65
3746613738,4296,164,16224,-114,57,-42
3746615425,4496,296,15932,-75,71,-151
3746617111,4064,580,16316,-93,141,-170
3746618796,3732,752,16172,13,142,-215
3746620476,3596,1212,16440,-43,78,-238
3746622156,3676,1280,16540,-141,-9,-8
3746623853,3796,612,16300,-109,84,54
3746625561,3904,500,16036,-124,46,-3
3746627267,4200,452,15856,-108,-17,-90
3746628984,4484,1000,15780,-166,97,2
3746631642,4568,124,16116,-86,213,-76
3746633370,4244,-208,16316,-65,174,-109
3746635070,3952,-240,16392,60,263,-259
3746636762,3796,740,16476,24,195,-191
3746638453,3816,936,16400,10,124,-130
3746640144,4028,1548,16080,-66,171,-19
3746641833,4372,748,16004,-61,197,36
3746643524,4452,716,16060,-59,158,-71
3746645223,3900,1032,16100,-78,92,-109
3746646929,3552,544,16072,-57,218,44
3746648635,3524,332,16516,-88,121,33
3746650343,3724,92,16188,-65,74,14
3746652080,4132,364,16400,-12,204,-120
3746653822,4384,268,15916,40,230,-58
3746655537,3760,856,16372,7,201,-275
3746657246,3464,920,16428,-17,196,-185
3746658953,3108,1012,16252,26,205,-84
3746660661,3312,864,16564,-45,55,37
3746662367,3480,528,16492,-39,-2,18
3746664102,4176,760,16368,-11,130,-9
3746665811,3968,48,16248,29,52,22
3746667518,3224,1144,16508,-31,76,-231
3746669223,3716,1728,16376,-91,130,-62
3746670928,4268,300,15992,7,131,150
3746672633,3928,-924,16364,74,76,-67
3746674345,3780,-1076,16280,107,127,-247
3746676081,3468,960,16308,145,170,-309
3746677805,3372,1396,16132,75,55,-15
3746679517,4048,2224,16176,-81,108,-25
3746681224,4028,1828,16452,-109,106,18
3746682929,3904,1092,16004,-11,4,25
3746684635,3412,348,16612,-68,-58,22
3746686340,3644,368,16328,-85,28,-18
3746688076,3528,624,16372,-50,116,-20
3746689784,4132,112,15968,10,-40,41
3746691493,4632,372,15948,2,132,-148
3746693197,4492,484,16016,66,191,-229
3746694927,3616,1656,15976,32,111,-309
3746696635,2780,1520,16492,-71,13,-67
3746698342,3316,1368,16492,-102,70,16
3746700072,3948,888,16428,-111,33,28
3746701780,4220,504,16488,-159,-61,-51
3746703487,4300,556,16012,-94,58,3
3746705217,4000,564,15980,-33,69,-33
3746706925,3940,1132,16016,-91,55,-116
3746708631,3788,1228,16176,-168,96,-61
3746710337,4104,1416,15892,-156,133,-51
3746712066,4260,788,16164,-152,34,26
3746713774,4272,152,16276,-125,74,-120
3746715504,3836,-288,16316,-14,148,-211
3746717251,3704,4,16204,58,90,-248
3746719002,3544,1100,16580,-49,35,-199
3746720728,3604,976,16368,-67,40,-6
3746722441,4184,1404,15872,-101,-32,-29
3746724160,4496,1348,15720,-163,-49,29
3746725970,4796,1416,15792,-216,197,-60
3746727706,4448,312,16240,-187,197,136
3746729454,3988,-860,16308,-84,107,-62
3746731174,3784,-904,16476,-72,190,-143
3746732871,3812,-392,16436,74,257,-214
3746734580,4072,788,16212,100,122,-129
3746736283,4380,936,16144,63,109,-82
3746737978,4556,1612,15992,12,288,-204
3746739681,3700,1580,16216,-12,120,-56
3746741379,3376,1320,16252,-134,45,-18
3746743075,3420,1292,16384,-202,136,16
3746744793,3684,484,16144,-125,91,129
3746746530,4396,-332,16060,-109,51,184
3746748233,4712,-740,16084,-75,133,67
3746749931,4688,-316,16196,79,398,-325
3746751626,3284,424,16496,140,228,-250
3746753318,3084,1300,16424,37,159,-227
3746755013,3124,1672,16348,-15,209,-116
3746756785,3580,1744,16116,17,112,10
3746758490,4112,1148,16544,-117,64,98
3746760202,3932,612,16720,-149,46,64
3746761907,3256,852,16476,-79,117,-129
3746763621,3292,476,16620,-104,-57,139
3746765331,4112,-536,16204,-72,58,153
3746767062,4044,-1316,16132,22,186,33
3746768770,4412,-872,16116,251,179,-392
3746770478,3964,1152,16260,126,62,-250
3746772187,3896,1492,15764,87,202,-118
3746773890,3336,2500,16092,51,212,-137
3746775597,3244,1500,16748,-104,-12,155
3746777328,3264,736,16492,-90,70,-15
3746779038,3364,524,16756,-48,70,45
3746780746,3876,512,16320,-10,-63,-43
3746782449,4124,416,16396,-74,-18,153
3746784185,4184,124,15956,-10,59,67
3746785916,4296,528,16072,62,96,-167
3746787669,3956,672,15872,66,21,-202
3746789387,3580,1492,16336,-3,206,-299
3746791102,3276,1728,16276,-25,147,-197
3746792817,3808,1220,16192,-44,-21,20
3746794531,4116,692,16536,-158,121,-44
3746796242,3636,1044,16256,-122,44,-114
3746797972,3560,1164,16348,-107,-45,-79
3746799688,3952,1248,15944,-90,-43,34
3746801405,3772,708,16200,-170,141,87
3746804046,4188,408,15804,-103,-16,-103
3746805769,4524,760,15940,-134,10,-5
3746807480,4352,-244,16088,-96,172,-1
3746809189,4096,296,16368,-31,130,-355
3746810887,3684,836,16196,-6,73,-318
3746812579,3648,1072,16328,-27,167,-182
3746814274,3772,1244,16640,-136,10,-45
3746815964,3796,1032,16632,-135,-59,-67
3746817683,3680,792,16152,-152,55,-6
3746819377,4360,432,15972,-95,55,7
3746821217,4408,960,15732,-158,39,-13
3746823344,4668,468,15668,-146,201,38
3746825234,4428,-160,16228,-93,291,10
3746827017,3968,-572,16400,-10,169,-122
3746828746,3644,396,16700,0,195,-262
3746830545,3648,484,16340,44,233,-89
3746832357,3576,1120,16520,23,104,-109
3746834097,3908,1224,16264,-11,67,-110
3746835784,4920,1412,16008,-99,182,-63
3746837477,4344,1192,15940,-119,175,-32
3746839158,3712,636,15928,-104,112,8
3746840826,3404,388,16392,-124,170,-16
3746842481,3548,-36,16488,-61,188,22
3746844127,3872,256,16692,0,119,-123
3746845774,4140,384,16484,-13,126,-72
3746847423,4600,604,16188,42,321,-122
3746849068,4120,492,16280,45,304,-166
3746850763,3388,820,16208,42,128,-249
3746852462,2872,1248,16608,-22,168,-60
3746854180,3252,752,16240,-18,59,119
3746855891,3596,392,16408,-43,-4,87
3746857600,3904,208,16384,-28,44,-5
3746859307,4492,184,16336,24,138,-84
3746861041,3760,556,16352,-21,108,-121
3746862751,3508,1060,16488,-39,48,-87
3746864458,3884,440,16264,-38,198,80
3746866165,3972,-644,16188,102,142,-120
3746867871,3832,-364,16592,124,117,-309
3746869579,3508,860,16208,79,120,-224
3746871306,3236,1464,16488,98,91,-56
3746873015,3408,1900,16108,37,30,-10
3746874728,4188,1872,16252,-80,15,21
3746876437,4076,1240,16324,-74,107,66
3746878146,3728,348,16312,-69,1,59
3746879853,3440,208,16252,-77,5,-91
3746881586,3440,456,16372,-58,95,-37
3746883296,3960,276,16296,14,47,-23
3746885004,4272,428,16096,-29,-8,-35
3746886711,4736,160,15776,-28,156,-252
3746888419,3488,1744,16316,76,144,-332
3746890126,2880,1360,16760,-44,-45,-106
3746891857,3292,1748,16396,-119,-20,-48
3746893567,3568,836,16536,-136,74,64
3746895276,4084,740,16176,-93,-46,-25
3746896983,4404,588,16264,-122,-127,37
3746898691,4300,796,15936,-123,128,-43
3746900398,4044,512,16296,-109,133,20
3746902128,3728,568,16144,-115,21,-118
3746903836,3756,1008,16008,-145,81,-169
3746905549,4084,992,16316,-94,153,-70
3746907258,4120,504,16368,-101,31,-76
3746908964,3892,-328,16096,-68,78,-226
3746910671,3928,344,16336,-26,162,-369
3746912401,3744,1036,16456,-44,25,-92
3746914109,3820,884,16220,-102,-27,-50
3746915820,3804,1116,16200,-158,1,-33
3746917537,4368,916,15812,-74,115,-37
3746919251,4584,1760,15712,-180,127,-13
3746920961,4648,328,16232,-228,244,85
3746922762,4192,132,16236,-145,253,11
3746924469,3596,-1060,16604,-65,105,8
3746926164,3568,-552,16424,70,172,-326
3746927857,3668,216,16424,80,221,-271
3746929548,4132,928,15804,114,134,-120
3746931241,4624,1724,16148,-24,155,-123
3746932997,4068,1064,16060,-66,260,-114
3746934708,3520,1356,16284,-44,225,-151
3746936427,3360,956,16212,-147,59,70
3746938136,3408,996,16436,-175,117,37
3746939844,3624,500,16500,-174,158,186
3746941556,4676,-568,15800,4,85,35
3746943338,4940,-132,16304,22,295,-195
3746945046,3816,544,16228,146,378,-331
3746946741,3192,1224,16752,134,269,-228
3746948434,2808,1040,16308,27,40,-45
3746950125,3336,1600,16372,-20,168,-23
3746951815,3616,1340,16212,1,124,90
3746953568,4664,796,16448,-48,47,32
3746955279,3704,836,16436,-168,113,-77
3746956989,3288,600,16616,-93,65,41
3746958696,3436,236,16520,-98,-6,101
3746960404,3852,-1368,16072,6,67,87
3746962111,3840,-996,16316,267,229,-391
3746963845,4092,984,15992,194,11,-319
3746965552,4564,2064,15380,108,64,-200
3746967259,3764,2156,16588,-41,308,-88
3746968965,3336,1980,16536,-55,67,52
3746970671,2952,888,16472,-118,-86,147
3746972378,2980,184,16584,-51,0,-11
3746974109,3540,796,16684,-23,7,-7
3746976752,4552,416,16012,-44,-74,159
3746978476,4920,140,15996,-53,175,-115
3746980188,3792,136,16140,59,102,-222
3746981894,2972,1108,15928,47,42,-272
3746983601,3156,1592,16152,-35,59,-198
3746985312,3448,1936,16340,-19,63,-86
3746987009,4892,436,16312,-70,56,80
3746988699,4612,248,16736,-92,125,-212
3746990391,3180,1356,16500,-179,3,-42
3746992083,3160,1044,16456,-41,5,-121
3746993772,3748,2044,16152,-87,-45,-15
3746995463,4104,112,16400,-246,-31,267
3746997165,4284,116,15860,-42,80,-168
3746998870,4716,612,15772,-75,10,-131
3747000577,4436,548,15632,-89,97,-158
3747002283,4052,528,16348,-156,213,-103
3747003988,3488,492,16268,-35,100,-284
3747005730,3344,1028,16464,-29,32,-238
3747007435,3460,552,16824,-102,65,-99
3747009144,3904,1352,16380,-48,-2,-182
3747010854,3940,984,15948,-123,-59,30
3747012562,4248,868,15764,-127,11,28
3747014267,4772,552,15592,-196,125,140
3747015996,4856,420,15384,-119,176,-80
3747017736,4568,388,16120,-144,268,12
3747019445,4208,-516,16428,-63,315,14
3747021152,3224,-4,16832,57,172,-216
3747022859,3348,320,16756,25,96,-234
3747024564,3568,824,16544,22,165,-209
3747026292,3820,1168,16196,-9,124,19
3747028027,4696,1104,15808,-48,43,-161
3747029739,4752,1440,16012,-151,229,-68
3747031446,4188,1040,15832,-88,262,19
3747033155,3188,536,15996,-110,130,16
3747034861,3380,-164,16480,-98,146,-66
3747036590,3620,336,16388,-45,208,-131
3747038297,4120,136,16284,13,144,70
3747039999,4844,872,16136,24,216,-172
3747041754,4108,940,16348,-30,282,-113
3747043467,3584,708,16224,46,238,-109
3747045177,2880,912,16620,-4,72,-141
3747046974,3288,880,16212,-75,114,-4
3747048683,3664,540,15900,-7,95,79
3747050376,3884,304,16256,7,33,100
3747052071,4628,412,16360,-40,51,-116
3747053765,3784,888,16480,-25,222,-115
3747055455,3408,784,16708,21,151,-103
3747057209,3900,840,16432,-75,40,113
3747058919,3732,-588,16300,46,198,-86
3747060629,3748,228,16296,155,141,-230
3747062341,3680,400,16348,114,39,-233
3747064069,3580,1752,16112,18,63,-66
3747065778,3880,1592,16296,19,87,65
3747067508,4124,1672,16120,-5,72,17
3747069218,3788,976,16220,-76,-8,35
3747070926,3708,684,16164,-16,103,8
3747072633,3620,576,16404,-64,33,-22
3747074407,3528,348,16512,-71,-4,-1
3747076242,4008,652,16224,-53,67,-106
3747078150,4764,240,15748,-12,101,-7
3747079865,3832,564,16016,48,122,-393
3747081532,3244,1108,16416,12,66,-345
3747083191,3028,1788,16672,13,63,-141
3747084925,3900,1656,16228,-92,-3,126
3747086714,4252,892,16420,-161,26,-42
3747088492,4076,888,16404,-179,35,-55
3747090251,4060,452,15944,-107,-38,41
3747091991,3908,872,16268,-115,38,-32
3747093723,3956,408,15944,-144,137,-31
3747095433,3844,388,16052,-82,135,-115
3747097155,4232,824,16100,-99,-8,-134
3747098907,4344,664,16340,-133,139,-123
3747100573,3940,232,16272,-85,133,-145
3747102284,3872,96,16040,-21,78,-210
3747104471,3728,1304,16536,-122,53,-38
3747106286,3748,788,16444,-86,68,51
3747108132,3868,836,16112,-103,-28,18
3747109908,4088,580,15840,-124,-7,-64
3747111622,4632,1616,15696,-136,161,36
3747113349,4932,1260,15936,-155,133,181
3747115102,4584,-216,15940,-160,217,33
3747116890,3864,-712,16168,-38,245,-102
3747118664,3764,-304,16420,95,193,-325
3747120436,3756,588,16476,63,144,-283
3747122204,3880,1084,16240,13,145,-91
3747123940,4208,1384,16060,-16,215,-31
3747125725,4356,656,15944,-35,90,-162
3747127445,4064,1272,16096,-37,87,-253
3747129127,3408,1232,16340,-127,176,36
3747130879,3472,972,16232,-105,110,68
3747132551,3632,-256,16388,-109,8,116
3747134247,4100,-340,15948,-30,101,-6
3747135926,4960,228,16084,-4,263,-59
3747137630,4144,-124,16208,68,295,-259
3747139361,3364,608,16672,68,255,-334
3747141088,2740,916,16412,77,200,-152
3747142782,3424,1484,16528,9,90,-48
3747144460,3660,808,16428,-68,92,97
3747146162,3960,636,16596,-52,147,15
3747147837,4292,872,16244,-57,45,-41
3747149856,3672,1180,16520,-91,52,-116
3747151562,3712,572,16572,-134,145,152
3747153236,3616,-436,16292,-15,89,183
3747154899,3660,-1472,15992,148,30,-127
3747156628,4168,-112,16420,206,199,-447
3747158386,4212,1192,16308,208,198,-390
3747160144,4156,2392,15736,29,157,-6
3747162016,4112,2444,16436,-79,163,-83
3747163814,3168,892,16576,-81,47,118
3747165553,2920,16,16500,-4,-16,-97
3747167266,3384,776,16836,-61,-27,-115
3747168996,3648,692,16208,-92,2,83
3747170748,4692,312,15980,-42,57,121
3747172478,4908,-400,16228,0,48,-207
3747174195,4228,252,16360,55,108,-399
3747175924,2876,1032,16140,90,151,-263
3747177666,3216,2328,16304,-6,37,-154
3747179413,4180,1232,16240,-136,-15,203
3747181177,4592,304,16268,-102,183,11
3747182940,3856,1388,16840,-120,30,-156
3747184690,3408,52,16348,-146,-128,34
3747186425,3572,1844,16136,-79,105,-97
3747188146,3944,1520,16140,-119,54,196
3747189873,4000,160,15908,-142,-29,5
3747191596,4852,348,15968,-150,28,-67
3747193361,4356,620,16048,-54,175,-271
3747195060,4036,960,16084,-99,140,-157
3747196723,3904,20,16140,-78,144,-233
3747198382,3296,1288,16504,-40,149,-214
3747200054,3412,788,16764,-53,27,-42
3747201710,3412,1060,16740,-55,-54,-165
3747203428,4040,1196,16356,-113,-7,2
3747205130,4308,1280,15732,-108,36,-37
3747206847,4704,1284,15516,-194,-19,134
3747208559,5220,-4,15544,-197,225,109
3747210265,4640,-208,15720,-117,337,-55
3747211970,4228,-444,16172,17,214,-75
3747213757,3596,60,16652,30,163,-268
3747215471,3284,332,16608,-8,212,-101
3747217181,3680,560,16508,44,191,-140
3747218889,3912,1632,16512,-34,60,-68
3747220599,4416,928,16288,-74,168,-124
3747222306,4552,1580,16096,-77,146,-98
3747224069,4156,1092,15936,-115,90,-38
3747225781,3564,808,15760,-137,155,21
3747227490,3600,-184,16232,-64,193,6
3747229197,3832,48,16356,11,149,-93
3747230904,4176,236,16500,-1,105,48
3747232611,4368,172,16364,46,335,-185
3747234323,3620,1280,16584,42,237,-204
3747236064,3332,1116,16468,25,106,-76
3747237776,3392,1256,16644,-93,163,-32
3747239483,3488,616,16236,-57,128,30
3747241192,3560,576,16316,-31,53,-106
3747242898,3568,264,16288,-61,-31,69
3747244606,4120,568,16196,-2,167,-144
3747246311,4060,920,16452,-58,128,-28
3747248046,3808,428,16660,-18,46,-18
3747249756,3964,332,16268,-16,143,59
3747251464,4100,-256,16324,113,175,-200
3747253176,4156,556,16264,120,175,-300
3747254909,3424,656,16288,22,109,-33
3747256619,3396,1300,16196,91,150,-101
3747258325,3700,1388,16432,-27,-42,13
3747260057,4084,1252,16048,-15,-35,42
3747261768,3772,788,16292,-75,144,52
3747263476,3908,524,16228,-11,47,-84
3747265205,3528,580,16372,-54,-14,-34
3747266913,3592,296,16408,-42,56,-9
3747268620,3920,772,16320,10,128,-157
3747270326,4484,992,15720,-10,25,-106
3747272055,4672,860,15956,7,93,-178
3747273764,3524,1016,16432,-19,182,-201
3747275496,3080,1328,16428,-10,-26,-146
3747277206,3880,1468,16252,-109,-17,58
3747278913,3908,1272,16200,-105,98,112
3747280620,3636,468,16408,-89,-13,-3
3747282333,4200,748,15740,-107,-98,-48
3747284064,4108,644,15916,-121,33,-37
3747285796,3840,612,16316,-120,189,10
3747287504,3896,384,15920,-124,19,-98
3747289213,4072,828,16000,-151,24,-119
3747290918,4304,564,15868,-117,130,-100
3747292623,4292,704,16304,-86,140,-102
3747294330,3788,228,16036,-62,56,-224
3747296081,3628,664,16256,-38,113,-323
3747297790,3712,1508,16536,-70,71,-93
3747299497,3920,904,16340,-148,-24,52
3747301203,4040,420,16116,-162,95,60
3747302910,4084,244,15868,-78,99,5
3747304618,4164,780,15964,-75,2,-82
3747306347,4808,804,15816,-143,132,45
3747308075,4488,224,16040,-102,300,-15
3747309786,4072,-240,16272,-58,194,-48
3747311492,3792,-248,16504,-2,137,-295
3747313200,3820,760,16404,13,233,-210
3747314957,3924,1016,16300,44,213,-147
3747316869,3928,1544,16224,-50,139,-37
3747318674,4244,764,16024,-72,169,-10
3747320417,4000,1136,16180,-9,143,-146
3747323175,3668,1092,16260,-123,169,82
3747324961,3580,776,16052,-135,244,120
3747326679,3836,-184,16196,-17,126,25
3747328382,4212,404,16068,-6,100,-169
3747330067,4352,268,16184,17,320,-99
3747331746,4056,300,16380,56,331,-156
3747333432,3044,588,16624,18,145,-194
3747335134,3316,1124,16208,-28,170,-181
3747336827,3420,1468,16620,-32,167,-43
3747338575,3908,604,16420,-24,46,46
3747340278,3780,592,16548,-66,57,-14
3747341990,3872,1024,16000,8,111,-118
3747343701,3948,1628,16244,-40,120,-72
3747345419,4024,708,16228,-92,16,131
3747347138,3604,-540,16284,16,163,96
3747348886,3780,-1320,16144,118,121,-36
3747350606,3940,-328,16524,215,127,-391
3747352318,3548,1988,16236,112,149,-209
3747354025,4028,2208,16184,17,143,73
3747355743,4520,2288,16284,-69,126,29
3747357464,3496,676,16020,-114,18,80
3747359203,2928,228,16448,17,95,-139
3747360912,3076,528,16588,-10,3,-52
3747362620,3624,636,16492,-74,-68,-16
3747364337,4348,648,16000,-64,70,156
3747366057,5236,-40,15924,60,121,-182
3747367771,4348,412,16088,58,72,-332
3747369503,3072,1116,16112,44,120,-350
3747371211,3060,2344,16512,-38,107,-53
3747372920,3988,676,16112,-99,-104,293
3747374636,4556,-40,16120,-116,80,48
3747376351,3920,1056,16864,-76,122,-306
3747378061,3764,436,16152,-92,-134,35
3747379794,3352,872,16144,-92,-63,-101
3747381504,3980,1240,16096,-208,163,92
3747383211,3600,580,16208,-140,44,-13
3747384928,4600,364,15696,-107,-64,-69
3747386648,4896,760,16080,-153,88,-188
3747388361,4460,588,16316,-95,171,-59
3747390093,3768,-140,16348,-23,97,-268
3747391803,3620,416,16248,-38,99,-301
3747393511,3708,960,16416,-45,125,-161
3747395226,3404,1296,16664,-56,4,-12
3747396935,4076,836,15928,-130,-22,12
3747398646,3976,888,15888,-138,78,-122
3747400421,4632,1200,15904,-116,47,29
3747402196,5012,640,15752,-191,109,74
3747403948,4372,-576,15884,-176,283,52
3747405677,4288,-932,16116,-58,313,-118
3747407403,3640,-16,16476,67,139,-234
3747409186,3728,172,16580,18,196,-240
3747410984,3864,1556,16396,51,244,-115
3747412720,3832,1376,16288,24,102,-50
3747414426,4012,1396,16048,-70,87,-111
3747416122,4172,1196,16416,-76,179,-66
3747417807,4308,1432,16096,-65,174,-81
3747419488,3712,844,15888,-153,45,147
3747421170,3836,-440,16196,-100,212,84
3747422868,4040,-64,16148,35,211,-126
3747424600,4100,4,16296,66,130,-104
3747426329,4324,572,16304,20,230,-136
3747428064,3792,616,16404,21,308,-134
3747429776,3532,968,16548,68,246,-234
3747431487,3184,1352,16424,-36,51,-93
3747433194,3448,1052,16500,-109,148,-21
3747434915,3496,728,16552,-70,43,95
3747436642,3804,136,16288,-26,-11,71
3747438354,3788,608,16256,-51,64,-79
3747440103,4012,640,16272,25,153,-61
3747441849,4012,652,16156,1,59,53
3747443561,4060,-220,16176,-5,60,142
3747445277,3900,-616,16444,124,282,-255
3747446994,3496,1016,16508,134,136,-287
3747448714,3432,1088,16092,121,58,-135
3747450428,3496,1936,16252,-31,97,7
3747452148,3884,900,16252,-62,86,28
3747453869,3716,1160,16552,-38,-5,-41
3747455602,3668,580,16504,-71,-49,62
3747457327,3608,568,16280,-17,94,-116
3747459042,3352,536,16412,-25,-20,26
3747460752,3884,488,16124,-9,-11,-54
3747462531,4220,608,15940,-66,85,-52
3747464256,4888,972,15808,44,202,-240
3747465967,3800,1284,16412,-26,86,-157
3747467667,2888,708,16584,-37,23,-80
3747469367,3060,932,16524,-7,67,-126
3747471066,4240,1568,16224,-99,64,-10
3747472824,3964,1216,16404,-150,63,-12
3747474534,3768,1020,16436,-168,-10,46
3747476248,3956,556,16004,-124,-47,-41
3747477960,3856,852,16152,-155,41,16
3747479668,4052,100,16044,-106,145,-39
3747481379,3940,540,15924,-60,85,-160
3747483114,4256,292,15912,-70,-17,-84
3747484824,4392,560,16196,-93,171,-149
3747486535,4292,420,16224,-92,199,-104
3747488241,3808,944,16160,2,110,-364
3747489949,3744,1916,16532,-135,19,-80
3747491657,3836,760,16300,-140,101,117
3747493388,3880,532,16296,-117,99,73
3747495976,4196,508,15936,-98,18,-131
3747497740,4356,884,15912,-129,116,25
3747499449,4472,728,15712,-148,85,69
3747501161,4692,244,16016,-127,159,-10
3747502870,4260,-752,15932,-22,317,-132
3747504576,3908,-404,16372,60,303,-321
3747506274,3704,660,16560,29,109,-293
3747507968,3836,1672,16264,-15,153,-144
3747509682,4048,1116,16240,-57,209,86
3747511375,4392,768,16112,-51,166,-5
3747513068,4408,1072,16204,-74,93,-103
3747514819,3856,684,15928,-73,204,3
3747516525,3508,680,16228,-66,213,30
3747518232,3468,348,16444,-71,73,52
3747519939,3716,-32,16376,-34,182,-51
3747521647,4364,332,15980,34,177,-81
3747523367,4684,304,16152,13,187,-127
3747525174,3860,784,16088,4,259,-235
3747526882,3260,740,16248,20,248,-155
3747528577,2900,1416,16560,-36,83,-95
3747530268,3264,1108,16536,-52,-2,62
3747531959,3896,660,16456,-26,124,79
3747533652,3936,-160,16276,15,71,-8
3747535401,4104,444,16144,38,45,-207
3747537135,3764,1856,16044,-87,71,-62
3747538869,3880,732,16508,-35,165,157
3747540593,3936,-452,16244,13,56,58
3747542304,3368,-1372,16332,99,8,-59
3747544055,3928,-92,16288,185,216,-445
3747545849,3644,1536,16088,103,56,-107
3747547557,3748,2204,16272,-16,94,-60
3747549265,4152,2248,16468,-123,138,41
3747550968,3764,1060,16268,-60,93,23
3747552664,3384,688,16196,-54,-7,3
3747554366,3292,252,16872,-51,-48,3
3747556090,3424,680,16520,-20,48,-25
3747557785,3972,152,16268,-12,-44,44
3747559487,4848,456,15904,5,24,-114
3747561187,4800,468,16272,-32,182,-108
3747562880,3472,992,15808,62,131,-332
3747564586,2964,1980,16360,-19,3,-191
3747566346,3348,1896,16248,-66,18,17
3747568102,4196,624,16344,-96,77,122
3747569820,3932,632,16800,-145,16,-195
3747571536,3792,740,16232,-144,-41,44
3747573249,3552,476,16068,-62,15,43
3747575000,4184,984,15988,-79,52,-115
3747576738,3796,948,16128,-184,88,-61
3747578447,3724,856,15824,-141,93,-50
3747580156,4504,1016,16000,-113,59,-11
3747581870,4720,572,15880,-152,71,-110
3747583578,4104,120,16224,-81,236,-142
3747585283,3564,-20,16360,2,151,-156
3747587015,3504,764,16636,-48,16,-230
3747588727,3412,1060,16640,-61,13,-72
3747590433,4084,1108,16208,-62,17,39
3747592143,4200,1072,15880,-125,-19,32
3747593854,4536,1140,15732,-184,43,-78
3747595560,4976,1040,15828,-217,209,120
3747597291,4764,112,15740,-192,201,191
3747599002,4040,-832,16072,-94,218,-119
3747600710,3596,-580,16388,47,255,-263
3747602418,3760,732,16244,130,155,-204
3747604127,3788,1048,16372,52,84,-127
3747605835,4448,1628,16324,-11,211,-170
3747607567,4188,1500,16408,-46,206,2
3747609275,3984,1064,16152,-45,97,5
3747610981,3744,1272,16356,-127,77,-116
3747612688,3400,676,16200,-111,160,97
3747614394,3744,100,16312,-105,72,127
3747616114,3920,-384,16140,-116,33,94
3747617821,4804,-260,16056,-7,263,-185
3747619528,4292,248,16240,77,316,-165
3747621234,3872,304,16372,83,232,-158
3747622945,3004,1220,16404,-5,224,-256
3747624652,3120,1424,16404,28,176,-71
3747626357,3676,1400,16308,-92,53,97
3747628183,3820,668,16464,-151,52,90
3747629887,4020,632,16316,-80,117,-98
3747631579,3412,708,16312,-45,12,27
3747633269,3336,456,16204,-60,9,65
3747634965,3984,244,16252,-63,114,48
3747636663,4236,-676,15792,133,140,-1
3747638410,4416,-156,16020,174,155,-348
3747640120,4024,604,16532,142,158,-371
3747641831,3548,1664,16456,83,210,-123
3747643537,3464,2032,16344,-19,76,65
3747645246,3516,1360,16420,-83,15,101
3747646954,3608,1028,16248,-79,97,-42
3747648684,3472,288,16644,35,-61,14
3747650393,3908,832,16348,-69,-32,-19
3747652102,3788,588,16380,-101,49,32
3747653811,3988,592,16140,36,88,-38
3747655521,4424,532,15972,-8,-7,-51
3747657229,4364,568,15732,-17,101,-187
3747658955,3796,1192,16180,34,219,-246
3747660710,3092,1148,16532,41,-9,-93
3747662561,3704,972,16392,-119,53,-42
3747664362,4068,1176,16556,-121,170,-71
3747666106,3860,1288,16776,-147,21,-91
3747669039,3972,488,15792,-158,5,14
3747670835,3820,1076,15916,-102,104,-45
3747672525,3876,424,16016,-119,6,-68
3747674206,4064,672,15860,-129,25,-87
3747675885,4072,320,15892,-104,93,-22
3747677566,4316,432,16392,-70,87,-177
3747679306,3968,196,16380,-66,114,-161
3747681008,4028,496,16120,-9,192,-230
3747682719,3548,1564,16600,-20,70,-211
3747684426,3732,1160,16404,-117,-45,21
3747686131,3916,932,16312,-174,30,76
3747687840,3844,264,15984,-111,58,7
3747689570,4236,796,15960,-108,6,-112
3747691275,4604,800,15632,-165,115,102
3747692984,4708,660,15900,-114,227,19
3747694691,4548,40,16336,-119,196,-43
3747696397,3900,-404,16384,13,165,-244
3747698106,3720,140,16376,24,252,-246
3747699836,3784,756,16292,48,157,-221
3747701543,3856,1700,16296,-42,115,-29
3747703250,4236,680,15972,-49,225,26
3747704955,4408,776,16092,-30,211,-113
3747706659,4052,1008,16100,-59,68,-87
3747708366,3572,772,16052,-94,171,-1
3747710096,3552,824,16088,-113,210,73
3747711802,3548,-48,16348,-106,122,41
3747713512,3960,360,16592,-37,144,-80
3747715222,4476,72,16076,47,253,-90
3747716930,4544,504,16048,46,258,-205
3747718684,3496,720,16452,29,196,-165
3747720481,3176,1032,16540,15,238,-186
3747722191,3252,960,16524,-35,54,7
3747723882,3516,892,16304,-27,33,-5
3747725593,4032,500,16460,-55,110,108
3747727298,3912,-32,16336,41,94,-24
3747729050,3800,376,16212,20,56,-134
3747730893,3704,1428,16356,-39,82,-106
3747732602,4052,852,16272,-51,158,135
3747734291,3908,-884,16220,50,82,24
3747735979,3900,-1224,16136,118,99,-192
3747737713,3828,292,16380,116,171,-347
3747739397,3444,1604,16140,107,115,-145
3747741134,3612,2288,16332,-41,43,23
3747742836,4064,1956,16324,-99,86,66
3747744554,3796,1300,16104,-48,70,34
3747746273,3660,592,16196,-59,-47,-16
3747747987,3604,532,16384,-102,36,-19
3747749732,3492,524,16460,-56,99,57
3747751464,3976,-144,16112,0,9,-28
3747753175,4604,448,16084,3,53,-104
3747754894,4696,336,16124,34,149,-153
3747756613,3916,1512,15892,38,145,-334
3747758326,2660,1428,16752,-63,-24,-149
3747760065,3288,1440,16564,-108,66,103
3747761798,3824,896,16452,-123,13,124
3747763509,4128,512,16828,-146,-19,-129
3747765228,4164,528,16284,-136,-32,-6
3747766946,3908,328,15924,-44,14,-19
3747768662,3960,984,15932,-64,74,-92
3747770371,4036,980,16168,-174,116,-77
3747772087,4192,1456,16068,-133,125,1
3747773797,4180,920,16400,-136,45,35
3747775516,4444,480,16324,-147,69,-92
3747777237,4012,-176,16228,-51,178,-150
3747778952,3692,-320,16256,30,138,-210
3747780665,3756,856,16672,-32,53,-271
3747782399,3504,932,16504,-60,22,-102
3747784110,3980,1548,16120,-85,-4,-14
3747785847,4312,1384,15908,-157,-21,48
3747787568,4780,1504,15736,-225,137,-98
3747789283,4732,680,16052,-183,199,93
3747790992,4164,-464,16236,-117,99,5
3747792724,4108,-732,16140,-113,159,-36
3747794434,3684,-616,16448,33,280,-237
3747796184,3840,524,16396,104,155,-141
3747797949,4648,1052,15952,43,133,-174
3747799686,4792,1532,16072,-8,249,-230
3747801404,3972,1728,16296,-16,211,-62
3747803215,3384,1340,16248,-110,44,-52
3747804928,3172,1276,16468,-183,45,-60
3747806618,3564,840,16228,-141,134,56
3747808300,3996,0,16284,-112,25,187
3747809987,4904,-1060,16032,-22,164,-77
3747811673,4864,-444,16160,23,356,-289
3747813416,3828,328,16584,164,312,-313
3747815137,3188,1260,16392,75,176,-156
3747816862,2908,1232,16252,-18,183,-111
3747818572,3264,1900,16260,23,135,-42
3747820283,4140,1404,16424,-83,25,169
3747821990,4192,472,16548,-143,117,18
3747823724,3568,652,16500,-114,152,-116
3747825445,3216,780,16532,-67,-2,11
3747827167,4216,60,15996,-87,1,124
3747828884,4068,-712,16256,-75,107,133
3747830595,4240,-1372,16056,244,213,-303
3747832302,4092,648,16396,191,98,-375
3747834034,3880,2040,15912,43,262,-194
3747835751,3380,2396,16388,23,285,-131
3747837467,3640,2096,16320,-62,61,87
3747839176,3488,820,16280,-104,3,67
3747841733,3672,392,16584,-11,68,15
3747843456,3740,752,16320,-36,-34,21
3747845180,3760,20,16124,-61,14,118
3747846889,4196,452,16340,61,121,-139
3747848587,4388,624,16084,62,34,-160
3747850279,4140,856,15836,54,101,-257
3747851970,3376,1504,16308,-4,201,-188
3747853729,3128,1484,16416,4,99,-156
3747855438,3780,1268,16280,-68,-54,64
3747857158,4240,564,16400,-160,177,-137
3747858898,3608,1332,16360,-133,18,-35
3747860657,3516,932,16720,-117,-91,23
3747862414,3916,1248,15796,-116,-23,37
3747864175,3700,344,16372,-151,89,38
3747865976,4032,840,16012,-97,-9,-100
3747867674,4372,1024,15784,-111,-31,-24
3747869362,4516,60,15816,-145,172,7
3747871044,4304,64,16180,-35,165,-256
3747872724,3932,312,16360,6,80,-331
3747874405,3564,1092,16508,-43,90,-252
3747876087,3496,1132,16708,-104,89,-75
3747877785,3832,1208,16404,-122,10,-59
3747879491,3752,832,16132,-142,-42,-10
3747881198,4104,372,16016,-121,90,-50
3747882905,4444,1020,15772,-148,36,1
3747884612,4428,580,15680,-129,11,48
3747886344,4652,688,15800,-130,239,17
3747888082,4428,-284,16444,-56,255,-33
3747889792,3832,248,16696,40,156,-238
3747891500,3604,224,16564,-5,158,-166
3747893207,3780,596,16364,68,244,-212
3747894913,3652,1416,16248,12,83,-87
3747896644,3852,1236,16176,-14,27,-9
3747898354,4724,1620,16036,-130,193,-67
3747900084,4216,804,16052,-89,159,-5
3747901792,3532,792,15984,-128,107,-34
3747903499,3488,224,16284,-169,148,55
3747905211,3780,88,16316,-24,249,-77
3747906992,3692,316,16604,-19,109,-29
3747908692,4188,152,16360,14,102,-35
3747910387,4568,828,16036,-4,303,-150
3747912080,3992,732,16116,60,245,-232
3747913767,2932,1356,16500,-30,117,-82
3747915458,2908,928,16532,-82,111,26
3747917212,3268,652,16336,-16,97,33
3747918915,3788,468,16504,-5,-3,56
3747920623,4220,112,16404,-6,18,47
3747922331,4280,236,16200,9,181,-98
3747924066,3500,956,16472,25,51,-167
3747925783,3984,1248,16356,-84,87,46
3747927524,4160,284,16192,-80,175,152
3747929234,4032,-348,16088,138,201,-182
3747930941,3672,236,16136,132,39,-302
3747932649,3456,724,16224,106,17,-266
3747934355,3360,1588,16460,79,150,-9
3747936090,4052,1744,16356,-4,2,-32
3747937823,3984,1548,16328,-142,62,86
3747939531,3960,876,16196,-70,68,103
3747941237,3736,680,16340,-53,15,-36
3747942945,3268,300,16376,-67,30,-79
3747944652,3716,416,16296,-15,121,-30
3747946359,3932,404,16292,4,8,-30
3747948094,4968,96,15852,-18,-5,-81
3747949804,3828,692,16248,15,230,-383
3747951512,3404,1300,16204,67,156,-339
3747953220,2888,1948,16584,-11,-54,-106
3747954928,3868,1344,16496,-152,57,104
3747956633,4040,948,16552,-108,55,7
3747958343,4044,640,16448,-133,-39,-21
3747960079,4484,588,15548,-108,-33,-40
3747961788,4100,776,16164,-104,184,36
3747963494,4032,364,16088,-84,129,18
3747965201,3652,768,16228,-115,40,-167
3747966909,3960,988,16304,-114,131,-109
3747968637,4192,844,16436,-95,77,-75
3747970346,4104,556,16468,-129,-1,-59
3747972076,3988,-144,16160,-77,141,-268
3747973792,3764,1008,16384,-26,81,-209
3747975518,3788,776,16304,-34,-30,-62
3747977234,3680,1116,16216,-124,-18,-80
3747978965,4428,972,15828,-106,91,27
3747980685,4600,1656,15508,-122,108,-66
3747982397,4604,1520,15816,-196,68,7
3747984108,4708,652,16208,-232,285,28
3747985821,3904,-700,16504,-92,168,72
3747987534,3680,-992,16472,21,161,-227
3747989310,3580,-340,16740,30,192,-292
3747991015,3988,596,16152,142,184,-138
3747992711,4616,1620,15896,38,130,-171
3747994403,4712,1632,16076,-75,138,-85
3747996107,4124,1160,16148,-41,258,-148
3747997807,3224,1224,16424,-97,75,7
3747999522,3356,1000,16296,-143,118,-61
3748001236,3448,1156,16360,-195,194,84
3748002946,4012,-604,16240,-41,82,214
3748004648,5132,-260,15772,0,176,-115
3748006349,4752,-440,16424,-1,278,-237
3748008072,3776,832,16440,141,390,-357
3748009830,2740,872,16844,29,84,-51
3748011568,2928,1364,16508,-11,158,-164
3748014441,4172,1000,16236,-4,65,107
3748016198,4552,872,16480,-94,74,13
3748017918,3824,792,16300,-158,127,-47
3748019635,3036,804,16600,-54,21,1
3748021421,3284,280,16400,-97,-51,154
3748023118,4000,-1212,16076,-32,113,29
3748024804,3816,-1012,16388,229,236,-308
3748026485,4136,920,16056,232,3,-324
3748028169,4592,2036,15448,95,58,-203
3748029851,3744,1960,16588,0,315,-135
3748031585,3492,2376,16908,-76,68,67
3748033289,3052,1084,16492,-159,-82,257
3748035002,2952,28,16368,-33,62,-111
3748036713,3600,960,16712,-12,-42,38
3748038424,4576,584,15740,-79,-55,180
3748040141,4792,96,16044,-97,52,87
3748041878,4500,-168,16224,46,162,-232
3748043589,3284,520,15996,80,22,-323
3748045307,3112,592,15692,35,20,-220
3748047025,3320,2024,16356,-35,220,-240
3748048783,3988,1568,16320,-45,-52,136
3748050500,4684,388,16844,-93,32,-212
3748052240,3852,1160,16596,-148,70,-259
3748053952,3568,700,16328,-109,29,27
3748055712,3552,1840,15984,-107,-52,47
3748057425,3992,140,16200,-222,9,201
3748059132,4180,-108,15824,-144,107,-57
3748060846,4664,636,15664,-46,1,-68
3748062584,4492,436,15840,-104,132,-178
3748064298,4048,720,16276,-143,222,-200
3748066036,3888,368,16080,-52,141,-211
3748067768,3372,1368,16440,-67,30,-181
3748069486,3696,180,16644,-84,97,-92
3748071203,3624,656,16668,-29,94,-240
3748072996,3856,1132,16256,-97,-97,-20
3748074696,4256,1072,15808,-120,33,4
3748076394,4860,488,15576,-177,77,166
3748078097,5064,300,15284,-156,108,31
3748079792,4632,536,15712,-157,206,-11
3748081511,4320,-492,16252,-15,326,-104
3748083243,3536,-332,16564,61,252,-230
3748084937,3172,332,16748,27,65,-145
3748086634,3492,796,16520,16,235,-207
3748088330,3640,1044,16480,-4,50,-7
3748090021,4256,972,15976,-12,8,-69
3748091714,5068,1696,15964,-143,162,-72
3748093469,4400,640,15636,-69,304,-57
3748095171,3376,732,15864,-79,187,-104
3748096883,3236,-128,16220,-104,92,19
3748098594,3492,708,16764,-3,232,-73
3748100303,3988,72,16552,18,82,52
3748102012,4452,312,16300,31,114,-73
3748103743,4604,980,16496,-31,319,-142
3748105493,3712,820,16328,62,228,-145
3748107251,2904,832,16628,-57,52,-45
3748108966,2896,632,16428,-82,52,23
3748110737,3440,752,16084,-3,107,7
3748112610,4000,64,16148,1,-7,34
3748114372,4396,632,16236,-48,167,-152
3748116069,3892,648,16192,-25,188,-103
3748117754,3380,900,16704,-8,85,-145
3748119438,3916,848,16456,-77,66,128
3748121122,3968,-128,16108,-22,181,121
3748122800,3864,-232,16164,136,197,-215
3748124568,3676,464,16412,98,57,-244
3748126288,3396,1832,16008,66,124,-77
3748127996,3480,1772,16424,51,89,60
3748129743,4140,1496,16140,-46,43,41
3748131462,3696,1008,16132,-98,54,62
3748133173,3908,628,16128,20,65,-64
3748134884,3868,752,16488,-47,7,-30
3748136617,3612,312,16624,-96,58,-40
3748138331,3764,564,16504,-29,102,-87
3748140083,4228,468,16044,0,26,-8
3748141843,4688,368,15820,7,60,-240
3748143624,3476,972,16396,11,180,-291
3748145449,3032,1976,16528,27,21,-146
3748147156,3632,1540,16312,-122,-76,76
3748148846,4132,1276,16272,-134,54,86
3748150531,4152,760,16688,-127,51,43
3748152218,4012,204,15884,-126,-83,-25
3748153896,3852,656,16228,-110,3,-134
3748155629,4016,936,16272,-120,149,66
3748157339,3936,580,15960,-107,46,-87
3748159058,4000,680,15780,-144,11,-127
3748160771,4412,760,16084,-117,121,-168
3748162490,4032,612,16428,-85,83,-64
3748164220,3960,60,16016,-60,59,-268
3748165941,3884,860,16272,-50,145,-387
3748167716,3832,1160,16384,-57,107,-36
3748169528,3760,1016,16200,-99,-22,-14
3748171283,4072,564,15936,-133,-16,-22
3748173008,4196,684,15876,-103,91,-93
3748174727,4408,1044,15884,-135,80,88
3748176588,4920,376,15788,-193,158,79
3748178304,4292,-148,16324,-96,295,-96
3748180036,3968,-436,16188,3,230,-62
3748181740,3732,-388,16328,31,149,-279
3748183443,3704,748,16540,10,169,-191
3748185147,4068,1412,16160,61,206,-97
3748187667,4512,948,16156,-77,102,-14
3748189390,3920,1156,16292,-75,196,-171
3748191106,3388,1092,16296,-39,129,-2
3748192816,3484,964,16068,-79,97,10
3748194563,3652,716,16448,-146,109,114
3748196334,3992,-24,16312,-14,183,36
3748198105,4916,212,16012,-13,145,-19
3748199838,4792,-124,16216,-7,233,-122
3748201551,3496,664,16516,58,375,-305
3748203286,2940,752,16656,81,159,-123
3748205049,3296,1364,16384,-41,72,-65
3748206807,3452,1188,16652,-70,85,31
3748208563,3956,608,16516,24,107,20
3748210286,4092,388,16316,-71,-26,0
3748211988,3516,1484,16536,-121,166,-196
3748213799,3432,1696,16660,-120,176,-36
3748215602,3992,52,16000,-56,-13,210
3748217356,3756,-1460,15980,37,79,-49
3748219176,4316,-564,16284,273,271,-436
3748220925,4028,820,16608,252,189,-407
3748222687,3904,2152,15552,59,38,22
3748224478,4068,2276,16584,-26,251,-107
3748226261,3524,1628,16408,-85,11,127
3748227999,2816,-164,16580,-18,-40,-36
3748229742,3152,456,16632,-52,52,-117
3748231414,3616,712,16488,-45,20,7
3748233083,4296,684,15896,-75,-42,160
3748234750,4856,-92,16048,-75,7,151
3748236415,4556,32,16256,54,209,-374
3748238078,3176,928,15800,137,69,-326
3748239798,3188,1620,16092,93,72,-319
3748241495,3304,2436,16604,-125,65,20
3748243204,4328,852,15932,-88,58,185
3748244914,4676,388,16544,-78,114,-37
3748246622,3624,900,16804,-168,-103,-65
3748248331,3352,256,16524,-92,104,-95
3748250064,3664,1632,15980,-76,5,79
3748251771,3916,952,16160,-160,-36,209
3748253485,3984,140,16060,-179,46,-79
3748255199,5060,704,15808,-91,55,-144
3748256908,4276,1008,16136,-135,77,-155
3748258617,4152,408,16076,-179,139,-23
3748260324,3676,324,16304,-26,223,-328
3748262030,3540,904,16492,-50,25,-140
3748263734,3548,656,16512,-73,4,-115
3748265442,3492,932,16620,-100,40,-80
3748267148,4048,1368,15940,-67,-47,-39
3748268859,4332,1488,15844,-135,-55,16
3748270597,5012,892,15352,-227,61,185
3748272311,4868,-32,15588,-152,301,36
3748274023,4236,-548,16124,-59,178,-67
3748275731,4160,-560,16264,-14,178,-153
3748277438,3524,144,16612,-7,261,-202
3748279147,3472,576,16576,48,179,-198
3748280877,3824,1228,16360,-11,54,-85
3748282586,4252,1120,16168,-64,107,-57
3748284300,4288,1524,16080,-41,172,-140
3748286006,4204,1180,15908,-87,94,-12
3748287715,3880,1000,15952,-114,124,-15
3748289423,3288,184,16096,-97,192,76
3748291154,3660,320,16420,-36,105,-44
3748292862,4092,-88,16332,-54,133,76
3748294571,4452,-248,16040,-4,277,-21
3748296282,4240,508,16352,74,270,-265
3748297992,3656,1144,16332,24,176,-158
3748299703,3276,1100,16624,-23,233,-149
3748301434,3164,980,16500,-38,132,-2
3748303143,3408,812,16436,-59,23,-83
3748304853,3744,184,16216,-81,83,52
3748306561,4028,8,16248,9,122,-51
3748308271,3820,992,16408,-35,53,-111
3748309980,3700,724,16540,-35,64,15
3748311711,3952,668,16316,-19,135,34
3748313418,4032,-256,16176,57,72,13
3748315126,4112,156,16404,113,146,-310
3748316833,3672,764,16556,52,204,-62
3748318539,3488,612,16212,87,191,-44
3748320254,3156,1728,16352,30,43,-98
3748321984,3884,1132,16032,-46,28,61
3748323693,4160,1268,16096,-39,149,23
3748325408,3724,484,16332,-46,10,46
3748327121,3752,828,16220,-54,3,-78
3748328829,3584,152,16136,-29,123,32
3748330535,3628,260,16468,33,110,-99
3748332269,4020,812,16324,-19,-4,-120
3748333977,4532,1004,15680,4,147,-145
3748335684,4468,1188,15948,15,237,-162
3748337391,3248,1008,16376,12,49,-215
3748339097,3032,1532,16560,-95,9,-62
3748340803,3984,1072,16132,-66,95,91
3748342532,4128,948,16588,-96,39,23
3748344243,3820,552,16516,-122,-120,-45
3748345948,4312,872,15956,-87,75,-45
3748347656,4084,1156,15900,-96,107,-30
3748349362,3740,316,16340,-151,28,18
3748351068,3736,764,16136,-148,70,-184
3748352774,4224,472,15944,-85,64,-83
3748354482,4436,664,16024,-73,78,-152
3748356190,4252,364,16460,-152,99,-69
3748357899,3896,448,15992,15,177,-299
3748360779,3940,1416,16416,-113,14,-68
3748362529,3892,1488,16468,-147,72,18
3748364244,3912,388,16332,-129,44,145
3748365947,4200,360,16036,-68,28,-141
3748367640,4220,820,15896,-99,34,-128
3748369333,4560,840,15824,-98,177,70
3748371024,4552,292,16116,-158,186,16
3748372715,4032,-808,16228,-72,180,-132
3748374409,3908,-548,16560,-1,256,-295
3748376111,3972,320,16468,65,154,-209
3748377818,3940,1304,16344,27,139,-243
3748379525,3908,1768,15912,-35,192,-76
3748381231,4320,1044,15912,-14,199,5
3748382933,4004,1144,16200,-71,98,-47
3748384666,3724,1084,16080,-82,131,-60
3748386377,3536,1280,16184,-92,200,22
3748388087,3596,12,16264,-85,91,167
3748389797,3876,8,16472,-28,122,-75
3748391505,4064,104,16520,-18,176,-140
3748393212,4624,304,16228,48,269,-96
3748394921,3716,532,16332,14,208,-198
3748396627,3212,712,16400,0,232,-242
3748398333,3060,1128,16356,5,205,-195
3748400069,3268,956,16472,-30,46,62
3748401778,3804,920,16380,-61,95,-6
3748403487,3952,500,16612,-66,117,66
3748405218,4028,432,16156,42,63,-123
3748406927,3888,1452,16316,-110,87,-42
3748408634,4100,736,16080,-55,155,127
3748410339,4048,92,15928,12,137,189
3748412082,3576,-1664,16264,136,60,-110
3748413800,3664,196,16596,164,200,-431
3748415535,3636,1168,16464,147,170,-298
3748417247,3840,2104,16240,59,111,-12
3748419068,4316,2132,16488,-121,110,23
3748420898,3656,812,16304,-75,110,9
3748422661,3048,248,16536,-47,-59,10
3748424396,3300,152,16632,-52,-56,-15
3748426200,3420,844,16352,-78,67,-30
3748427900,4288,352,15796,35,30,89
3748429590,5116,448,16008,-21,117,-157
3748431274,4300,288,16304,-15,153,-262
3748432957,3204,1592,16156,94,125,-329
3748434646,3036,2028,16656,-67,-18,-25
3748436390,3476,1548,16232,-123,-20,116
3748438098,4116,352,16384,-124,170,74
3748439813,3944,780,16624,-83,-28,-163
3748441522,4016,912,16296,-129,-152,-60
3748443235,3512,580,16164,-105,36,-24
3748444954,4112,1152,15956,-104,123,-10
3748446699,3876,484,16048,-187,24,-19
3748448419,3832,516,15980,-132,0,-136
3748450135,4648,1304,15876,-113,129,-43
3748451845,4648,464,15940,-111,88,-50
3748453557,3912,-92,16132,-83,186,-186
3748455277,3400,-80,16656,-19,184,-289
3748457018,3644,1172,16732,-13,44,-208
3748458735,3424,956,16748,-92,-71,26
3748460449,4008,956,16072,-109,17,26
3748462157,4044,936,15948,-90,47,-29
3748463911,4876,1268,15620,-127,4,-28
3748465630,4928,684,15744,-247,225,110
3748467371,4408,-88,15944,-179,263,131
3748469083,3884,-800,16204,-69,195,-99
3748470796,3760,-616,16620,24,155,-248
3748472515,3888,788,16340,84,249,-230
3748474261,3820,1044,16476,84,154,-157
3748475988,4296,1576,16088,9,81,-95
3748477766,4004,1396,16340,-75,230,-88
3748479478,4120,1608,16164,-61,134,-107
3748481188,3912,1716,16088,-145,95,-51
3748482896,3452,452,16000,-164,96,170
3748484604,3688,-188,16400,-74,155,70
3748486313,3940,-412,16092,-31,95,15
3748488222,4772,-60,16020,61,191,-134
3748490040,4072,260,16492,70,378,-189
3748491796,3352,876,16372,68,173,-241
3748493518,3008,1280,16500,-37,118,-120
3748495247,3332,1368,16292,-64,156,-38
3748497017,3752,1348,16404,-72,152,61
3748498837,3840,404,16256,-55,1,8
3748500532,3852,544,16092,-62,93,-32
3748502219,3644,436,16356,-29,127,-52
3748503904,3744,720,16380,-42,89,-50
3748505588,4144,-228,16108,-23,47,146
3748507270,4132,-864,15784,69,118,48
3748509009,4104,-8,16236,198,203,-372
3748510709,3644,1176,16332,129,74,-157
3748512428,3196,1596,16380,12,157,-41
3748514147,3572,1804,16204,-1,165,54
3748515858,3600,1068,16252,-79,-7,-16
3748517568,3732,672,16188,-94,41,59
3748519303,3488,148,16400,-41,89,24
3748521018,3680,800,16448,-10,2,-39
3748522730,3784,340,16096,-6,-45,-42
3748524439,4188,604,16196,3,130,2
3748526176,4412,428,15948,9,110,-72
3748527912,4160,1384,16024,-9,101,-245
3748529707,3348,1140,16336,-19,115,-118
3748531413,3056,964,16656,3,46,-82
3748533857,3988,1048,16428,-109,-23,-46
3748535561,3984,1240,16576,-145,129,-62
3748537256,3864,1116,16468,-133,72,0
3748538948,3904,544,16064,-117,-115,-41
3748540649,3744,1056,16220,-157,74,-48
3748542346,3820,208,16464,-96,95,-25
3748544064,3848,584,15888,-78,25,-126
3748545758,4208,580,15828,-128,-43,-31
3748547450,4480,488,16044,-59,215,-116
3748549145,4296,332,16308,-70,165,-108
3748550896,3928,524,16104,-51,88,-276
3748552602,3608,1520,16200,-74,154,-161
3748554315,3908,1288,16492,-99,23,33
3748556051,3764,992,16492,-141,-22,51
3748557763,3804,300,16108,-108,60,-6
3748559472,4220,732,15908,-59,62,-80
3748561205,4404,912,15928,-109,1,-10
3748562916,4744,664,15608,-171,47,12
3748564624,4708,116,15888,-126,284,35
3748566331,4100,-588,16632,30,198,-260
3748568060,3948,164,16624,46,162,-377
3748569769,3744,804,16444,-12,224,-241
3748571500,3732,1644,16124,14,175,-68
3748573209,3788,1320,16264,-55,93,27
3748574918,4264,1036,16068,-87,146,-112
3748576626,4332,1096,16476,-74,206,-29
3748578333,3764,732,15832,-83,115,-6
3748580062,3336,640,16364,-129,117,-8
3748581797,3364,72,16388,-71,192,66
3748583506,3932,264,16400,-4,128,-63
3748585217,4472,276,16108,-9,142,-74
3748586924,4636,652,16068,-21,273,-142
3748588630,3824,444,16420,19,285,-130
3748590337,3188,872,16360,23,114,-291
3748592096,2960,1152,16532,-44,129,-191
3748593806,3212,888,16500,-8,140,54
3748595513,3764,592,16384,-34,24,92
3748597221,4248,-12,16032,-17,77,-19
3748598926,4388,508,16212,22,155,-141
3748600632,3360,1148,16376,-9,34,-64
3748602341,3660,1012,16696,-95,104,1
3748604074,3796,644,15940,-66,146,127
3748605783,3860,-992,16024,130,90,-9
3748607491,3972,-420,16440,141,118,-395
3748609199,3428,1124,16244,76,148,-220
3748610904,3372,1836,15896,104,168,-117
3748612633,4140,1968,15832,-40,29,98
3748614342,4092,1588,15992,-135,99,-61
3748616070,3592,1132,16548,-117,104,4
3748617778,3344,380,16640,6,-10,10
3748619486,3352,516,16408,-75,-53,-4
3748621192,3768,396,16092,-34,95,-16
3748622931,4244,628,16184,6,99,8
3748624655,4824,-40,16160,2,27,-36
3748626370,3812,944,15972,39,184,-422
3748628080,3432,1680,16192,67,166,-342
3748629787,3024,1788,16508,5,-8,-53
3748631494,3548,844,16796,-189,-17,134
3748633225,4120,552,16788,-106,111,-155
3748634941,3892,856,16620,-111,-11,-134
3748636655,4152,216,15896,-93,-138,56
3748638363,3820,1052,15956,-114,169,-124
3748640074,3840,1028,16260,-109,173,-54
3748641783,3796,944,16076,-73,4,-108
3748643513,4232,1172,16072,-199,57,-32
3748645223,4668,948,16176,-112,179,-114
3748646930,4304,684,16332,-131,111,-37
3748648637,3568,-644,16304,-56,29,-124
3748650343,3572,684,16568,-4,147,-313
3748652074,3408,792,16656,4,-14,-73
3748653805,3644,1176,16472,-19,-56,-48
3748655518,4172,1096,16076,-174,38,16
3748657228,4500,1364,15580,-102,113,-126
3748658934,4808,1820,15624,-151,125,-84
3748660640,4848,168,15964,-259,196,146
3748662345,3828,-664,16076,-114,282,-24
3748664144,3572,-1216,16404,56,147,-241
3748665877,3576,-504,16392,120,113,-309
3748667594,3856,564,16456,58,198,-122
3748669303,4600,1924,15852,80,225,-156
3748671009,4644,2000,16056,7,174,-48
3748672718,3872,968,16280,-46,169,-58
3748674426,3404,1520,16472,-85,165,-69
3748676134,3324,916,16160,-109,53,81
3748677844,3560,764,16280,-146,51,122
3748679551,3944,-664,16012,-105,95,217
3748681258,5144,-388,15968,49,226,-221
3748682965,4908,100,16068,39,293,-256
3748684675,3764,272,16272,86,330,-251
3748686381,2572,1300,16380,45,237,-233
3748688091,3096,1648,16184,14,51,-124
3748689798,3536,1944,16208,-44,53,8
3748691504,4228,840,16528,-87,184,159
3748693212,4280,836,16340,-78,27,-52
3748694948,3848,900,16460,-97,-7,-81
3748696657,3220,456,16576,-95,91,61
3748698365,3964,32,16212,-66,51,114
3748700075,4020,-1352,15944,119,55,-12
3748701779,4364,-1040,16124,171,183,-246
3748703484,4428,416,16356,206,197,-322
3748706354,3136,2296,16576,-27,146,-88
3748708119,3548,1880,16760,-109,183,73
3748709840,3228,1228,16544,-131,57,59
3748711569,3208,300,16344,-23,-35,-15
3748713291,3664,564,16508,-31,21,6
3748715002,4060,352,16440,-29,17,60
3748716712,3916,416,16248,20,-20,2
3748718409,4376,540,16276,-19,45,-16
3748720103,4168,412,15776,56,167,-199
3748721792,3668,856,15832,58,175,-287
3748723480,3368,1708,16440,9,61,-220
3748725179,3480,1540,16456,-56,33,30
3748726955,4252,296,16632,-110,91,-32
3748728697,3984,752,16932,-118,117,-308
3748730455,3508,1020,16624,-191,-27,66
3748732179,3776,1000,16168,-46,-35,-101
3748733887,3992,804,16144,-186,-32,126
3748735599,3940,320,15980,-179,53,51
3748737382,4112,740,15912,-50,107,-128
3748739083,4456,656,15900,-89,-11,-94
3748740781,4424,752,15992,-148,58,-110
3748742477,4208,192,16560,-134,198,-66
3748744169,3624,540,16392,17,107,-300
3748745874,3532,988,16720,-53,10,-231
3748747681,3668,1168,16668,-76,67,-152
3748749463,3924,1152,16228,-119,31,50
3748751168,3932,356,15932,-125,-49,-22
3748752871,4368,896,15848,-155,97,-31
3748754580,4560,656,15620,-134,118,42
3748756279,4808,812,15564,-104,146,-69
3748758035,4576,112,16216,-149,232,24
3748759756,4076,-288,16448,-45,274,-71
3748761452,3832,-44,16700,23,173,-190
3748763152,3696,572,16436,31,140,-267
3748764857,3648,1492,16404,-11,203,-17
3748766557,4108,1132,16164,-17,109,116
3748768258,4696,912,15956,-66,118,-170
3748769970,4184,1056,15860,-92,206,-95
3748771681,3900,928,16076,-42,217,-37
3748773393,3352,848,16100,-139,122,43
3748775112,3504,-12,16352,-125,134,-3
3748776831,3844,260,16428,-3,132,-16
3748778548,4252,72,16396,-13,113,-14
3748780294,4664,804,16220,-21,236,-219
3748782008,3752,736,16464,17,325,-162
3748783718,3376,664,16044,64,232,-145
3748785447,3024,940,16284,-18,84,-66
3748787168,3300,1012,16316,-47,152,-41
3748788879,3872,676,16372,7,59,139
3748790657,3984,8,16344,19,-13,126
3748792357,4080,284,16296,-20,109,-181
3748794050,3720,1048,16288,19,146,-96
3748795750,3908,1260,16240,-40,68,56
3748797453,4136,620,16096,-100,73,149
3748799148,3912,-816,15916,75,214,-121
3748800943,3816,-64,16452,153,80,-239
3748802654,3956,160,16316,129,59,-212
3748804371,3220,1732,16236,47,150,-183
3748806088,3624,1788,16164,35,47,47
3748807800,4136,1760,16256,-80,-3,39
3748809512,4048,1320,16188,-121,23,70
3748811254,4092,1036,16276,-34,175,-51
3748812968,3604,428,16220,-93,7,114
3748814684,3340,-104,16356,-68,-20,46
3748816404,3708,200,16508,-9,109,-112
3748818121,4516,372,16128,50,-19,-38
3748819828,4464,540,16016,-14,156,-324
3748821561,3876,1340,16000,-36,176,-374
3748823270,3004,1776,16652,4,58,-187
3748824985,3520,1248,16460,-115,-81,175
3748826705,3980,688,16628,-155,132,-87
3748828421,3700,856,16476,-124,63,-71
3748830128,4340,436,15808,-52,-123,-14
3748831902,4156,1052,15828,-137,93,12
3748833702,4068,596,16140,-86,197,-95
3748835479,3808,1080,16140,-75,116,-160
3748837225,3880,1084,16056,-166,21,-7
3748838943,4232,808,16220,-116,174,-106
3748840649,3892,48,16456,-69,23,-35
3748842410,3868,-448,16280,-21,-3,-112
3748844201,3660,524,16496,-29,140,-311
3748845919,3772,952,16496,-19,19,-110
3748847610,3724,1316,16208,-53,-23,-89
3748849297,4136,928,15720,-149,36,84
3748850977,4584,1324,15656,-104,168,-161
3748852661,4748,1264,15928,-201,90,67
3748854348,4732,780,15832,-193,150,94
3748856096,3992,-224,16248,-160,236,80
3748857826,3680,-1072,16376,-1,154,-199
3748859519,3624,-460,16604,48,131,-263
3748861210,3988,144,16392,94,166,-108
3748862957,4412,1176,15800,90,179,-186
3748864665,4528,1388,16172,-31,153,-129
3748866380,4020,1160,16100,-25,187,-110
3748868090,3292,1388,16508,-93,187,-36
3748869799,3540,1224,16208,-166,92,-48
3748871503,3292,1312,16344,-191,84,3
3748873237,3916,-532,16172,-143,121,283
3748874953,5024,-216,15800,-22,188,-136
3748876663,4676,-88,16136,44,287,-241
3748879265,3448,680,16412,111,370,-259
3748880987,2832,912,16256,56,146,-164
3748882693,3232,1836,16112,-17,91,-82
3748884461,3536,1520,16336,-43,103,137
3748886175,4256,856,16480,-38,170,49
3748887880,3700,1144,16532,-130,3,-81
3748889581,3268,788,16596,-135,81,57
3748891283,3320,324,16880,-99,52,135
3748892981,3920,-972,16236,-30,8,97
3748894674,3748,-1384,16084,151,154,-279
3748896369,4168,-576,15932,237,229,-300
3748898059,4144,1180,16068,207,109,-318
3748899744,3824,2424,16512,6,213,-110
3748901439,3584,2344,16568,-19,251,-75
3748903131,3372,1740,16504,-88,93,147
3748904881,2984,156,16312,-28,-67,-20
3748906587,3680,1060,16964,-89,22,23
3748908295,3852,640,16592,-85,15,191
3748910002,4268,4,16148,-28,30,58
3748911709,4604,292,16244,5,11,-154
3748913416,4424,260,16232,34,66,-211
3748915141,3600,836,15768,80,154,-281
3748916851,3340,1752,16240,-13,117,-229
3748918559,3304,1928,16152,-90,-1,37
3748920268,4308,1112,16156,-61,-13,238
3748921979,4408,248,16904,-86,153,-362
3748923684,3228,1264,16688,-212,-81,33
3748925412,3176,448,16320,-139,0,70
3748927127,3600,1924,15872,-51,-8,39
3748928843,4320,384,16060,-209,-27,119
3748930554,4380,596,15688,-112,113,-21
3748932258,4704,276,15732,-66,42,51
3748934019,4116,484,16040,-97,73,-202
3748935755,4204,260,16440,-110,149,-147
3748937462,3604,640,16448,11,165,-226
3748939174,3412,840,16512,-24,76,-175
3748940886,3584,616,16636,-76,7,-230
3748942592,3692,1428,16316,-76,13,-42
3748944299,4140,1060,15912,-108,-22,70
3748946030,4184,1192,15888,-158,26,-47
3748947736,4720,400,15664,-181,149,120
3748949448,4676,436,15580,-89,158,-39
3748951156,4656,476,15988,-124,160,-35
3748952861,4300,24,16376,-79,329,-119
3748954568,3580,-36,16720,12,206,-71
3748956302,3352,-432,16504,35,92,-105
3748958012,3488,804,16700,14,121,-267
3748959720,3756,1252,16176,33,132,-20
3748961427,4748,1364,15920,-16,46,-77
3748963131,4676,1396,15992,-127,65,-75
3748964840,4216,1264,16000,-113,254,-121
3748966569,3428,608,15992,-116,103,110
3748968278,3428,-328,15912,-108,91,70
3748969992,3576,540,16300,-88,220,-127
3748971699,3948,152,16208,50,182,-11
3748973404,4732,800,16256,-1,198,-125
3748975115,4440,696,16548,-38,208,-150
3748976848,3692,1092,16356,24,303,-216
3748978554,2956,760,16532,-5,72,40
3748980299,2896,448,16380,-13,11,5
3748982012,3284,904,16348,-81,142,-45
3748983719,3988,404,16204,44,54,129
3748985423,4536,208,16316,-36,41,-28
3748987153,4036,136,16432,-85,63,-87
3748988861,3772,996,16644,27,224,-234
3748990569,3996,892,16260,-42,66,152
3748992281,4068,-408,16168,26,174,-130
3748993990,3504,-248,16376,86,233,-282
3748995695,3700,400,16444,165,78,-229
3748997425,3284,1552,16116,50,48,-103
3748999132,3284,1564,16532,-24,102,-26
3749000839,4136,2060,16276,1,84,3
3749002546,3900,988,16364,-78,-39,173
3749004254,3884,584,16176,-63,81,-64
3749005958,3672,700,16644,-54,113,-68
3749007688,3500,336,16296,-7,28,7
3749009396,3756,408,16300,-60,15,-71
3749011107,4140,424,16184,-50,42,-37
3749012816,4788,444,15844,21,175,-164
3749014522,3580,596,16040,10,98,-282
3749016229,2752,1752,16608,7,102,-311
3749017962,3008,1968,16680,-30,34,-58
3749019670,4004,1344,16656,-101,-28,101
3749021376,3832,640,16536,-170,22,7
3749023084,4060,680,16224,-146,3,-29
3749024791,4200,908,15828,-77,-22,-25
3749026495,4108,484,16064,-137,21,141
3749028205,3656,320,16372,-126,195,-154
3749029915,3640,560,16016,-72,138,-152
3749031620,4216,848,15924,-69,10,-128
3749033324,4184,644,16368,-166,126,-35
3749035030,4072,172,16464,-120,162,-40
3749036736,3592,560,16344,-9,110,-329
3749038466,3812,988,16400,-89,-5,-114
3749040176,3672,1108,16316,-102,71,-32
3749041886,3768,944,16320,-105,13,39
3749043591,4188,600,15748,-62,-16,-63
3749045299,4296,1152,15904,-162,139,-43
3749047006,4804,1300,15604,-137,168,12
3749048734,4792,852,16004,-192,194,104
3749051559,3776,-1204,16416,-9,298,-151
3749053301,3484,-76,16408,116,169,-325
3749055013,3644,520,16336,117,89,-254
3749056725,4036,1428,16164,-24,158,-87
3749058434,4440,1016,16060,-52,221,-13
3749060149,3988,1072,16228,-42,106,-172
3749061845,3816,1124,16304,-83,70,-118
3749063531,3484,1248,16032,-132,227,-83
3749065222,3576,872,16420,-137,102,176
3749066916,3540,80,16400,-98,18,188
3749068607,4352,-216,16120,-29,123,1
3749070358,5120,-44,16092,44,302,-198
3749072087,4764,592,16072,78,345,-265
3749073792,3148,728,16332,41,209,-95
3749075498,2784,848,16360,38,222,-203
3749077207,3228,1656,16348,6,29,29
3749078914,3528,1112,16484,-12,-6,146
3749080644,4156,404,16536,-68,150,59
3749082353,4092,648,16404,-64,108,-139
3749084083,3392,1368,16500,-86,12,-32
3749085789,3468,740,16472,-113,45,188
3749087498,3780,-476,16308,-23,122,72
3749089204,3680,-1568,16312,170,47,-195
3749090932,4044,-896,16264,248,107,-368
3749092724,4212,1528,15932,163,123,-217
3749094538,4172,2300,16424,28,234,-108
3749096287,4076,2760,16544,-115,118,117
3749098002,3260,1280,16620,-138,42,241
3749099712,2624,-312,16488,4,43,-90
3749101501,3444,964,16924,-31,-91,-44
3749103207,4100,912,15956,-100,10,166
3749104898,4656,304,15900,-84,87,211
3749106574,4928,-460,16404,4,82,-235
3749108257,3688,392,16100,48,49,-278
3749109937,3064,400,15984,59,135,-246
3749111670,3280,2408,16176,10,180,-262
3749113407,3760,1896,16088,-89,-94,132
3749115116,4752,508,16452,-82,188,-42
3749116822,4248,648,17060,-100,173,-224
3749118526,3388,1028,16568,-158,-105,-3
3749120302,3092,1120,16460,-112,59,-35
3749122104,3912,684,16392,-133,6,204
3749123805,4040,208,16008,-164,-3,45
3749125513,4484,604,15572,-102,18,-91
3749127224,5028,476,15860,-81,194,-106
3749128930,4104,548,16280,-86,142,-185
3749130634,4012,332,16212,-111,73,-240
3749132403,3460,1116,16596,-92,169,-175
3749134111,3484,364,16816,-64,32,-120
3749135827,3284,556,16724,-77,-6,-202
3749137542,3996,1032,16256,-62,-26,-112
3749139253,4272,1384,15648,-92,15,-11
3749140966,4912,1000,15508,-186,34,116
3749142703,5068,872,15332,-211,133,96
3749144415,4664,-64,15912,-145,314,68
3749146128,4340,-684,16212,-15,234,-186
3749147841,3692,-324,16696,31,173,-284
3749149552,3152,352,16848,8,215,-177
3749151262,3528,624,16840,16,149,-105
3749153002,4016,1168,16320,-30,20,-89
3749154713,4352,1404,16116,-80,110,-148
3749156425,4776,1216,15856,-74,144,9
3749158138,4244,1012,15808,-102,144,-124
3749159848,3536,912,15736,-127,143,-60
3749161560,3344,224,16144,-43,218,-16
3749163301,3716,272,16448,-48,87,29
3749165016,3992,192,16408,-7,168,-56
3749166730,4440,552,16352,14,292,-99
3749168442,4340,704,16368,41,221,-102
3749170152,3492,980,16424,23,193,-212
3749171897,3148,1212,16536,-33,193,-51
3749173633,3212,856,16620,-3,135,39
3749175343,3324,496,16156,-59,-5,20
3749177050,3976,112,16072,-30,78,-105
3749178805,4208,656,16052,23,163,-140
3749180624,4060,588,16240,-29,42,-7
3749182387,3752,928,16536,-34,116,-119
3749184222,4064,108,16276,2,157,72
3749185933,4032,-256,16280,106,148,-206
3749187635,3888,-60,16192,89,137,-236
3749189330,3644,864,16352,91,187,-217
3749191022,3320,1592,16208,56,54,31
3749192712,3572,1364,16244,-20,15,81
3749194407,3940,1436,16112,-76,98,-63
3749196110,3732,668,16136,-24,65,90
3749197815,3680,348,16376,7,-10,5
3749199521,3632,680,16532,-81,-24,-18
3749201229,3628,320,16360,-38,144,-93
3749202936,3884,540,16344,-12,36,-11
3749204669,4340,436,15920,-16,-19,-67
3749206379,4292,1000,15960,-54,164,-243
3749208091,3460,788,16272,56,158,-222
3749209802,3044,1092,16588,51,44,-229
3749211511,3308,1308,16660,-104,-73,-10
3749213220,4204,1588,16540,-98,121,-18
3749214951,3884,768,16644,-135,-97,133
3749216659,4136,336,16128,-113,-137,40
3749218366,3916,844,16128,-97,89,-128
3749220077,3900,616,16248,-73,78,9
3749221782,4116,708,16248,-108,43,-15
3749224372,4260,532,16032,-129,134,-142
3749226096,4240,748,16236,-98,51,-86
3749227795,4100,16,16276,-73,62,-161
3749229485,3996,464,16188,-71,169,-347
3749231176,3692,1316,16272,-28,112,-225
3749232868,3584,1188,16392,-104,-68,1
3749234558,3752,1044,16276,-163,-18,92
3749236253,4152,600,15856,-102,119,-55
3749237956,4288,1028,15820,-110,24,10
3749239663,4448,768,15684,-163,-3,65
3749241369,4676,516,15864,-162,210,-47
3749243075,4364,-124,16284,-51,246,-45
3749244783,3992,-484,16420,-8,158,-190
3749246489,3660,-228,16364,-37,196,-253
3749248198,3700,688,16416,59,227,-261
3749249907,3996,1548,16248,-9,111,-56
3749251613,4308,1304,16116,-68,102,26
3749253320,4200,1028,16132,-68,259,-136
3749255025,3704,988,16428,-14,86,-71
3749256756,3696,1160,16156,-103,69,-12
3749258466,3636,972,16076,-179,155,73
3749260176,3708,168,16256,-51,199,22
3749261886,4140,76,16264,-16,72,3
3749263593,4580,-104,16104,-6,142,-33
3749265303,4200,356,16304,59,377,-255
3749267039,3188,684,16560,59,182,-184
3749268749,3044,976,16516,-29,124,-124
3749270456,3084,1184,16352,-50,169,-80
3749272163,3744,812,16372,2,83,3
3749273869,4028,680,16468,-77,27,67
3749275575,3812,-124,16420,-88,73,73
3749277305,3532,1332,16136,-3,147,-241
3749279013,3696,1052,16740,-104,1,112
3749280721,3956,-92,16132,-57,98,113
3749282428,3852,-848,16044,9,184,94
3749284135,4220,-740,16036,224,177,-394
3749285841,3752,1248,16240,115,105,-228
3749287570,3496,1496,16064,87,97,-67
3749289284,3716,2292,16688,19,161,-90
3749290992,3932,1764,16492,-92,10,102
3749292783,3248,336,16384,-90,95,17
3749294610,3196,236,16848,-24,-11,-62
3749296373,3576,664,16548,-47,-54,-91
3749298179,3840,544,16052,-102,-16,162
3749299882,5060,172,16076,20,158,-62
3749301578,4840,356,16328,26,122,-189
3749303269,3616,624,15976,83,26,-367
3749304964,3032,1980,16284,-5,221,-232
3749306659,3428,2028,16408,-75,-26,83
3749308350,3844,1524,16228,-108,-79,182
3749310052,4316,108,16728,-150,174,-138
3749311759,3692,688,16584,-111,-82,-31
3749313468,3704,368,16072,-88,-104,9
3749315176,3612,1212,15600,-64,33,-28
3749316883,4000,792,16072,-170,123,55
3749318616,4116,468,15904,-106,-53,-102
3749320324,4552,868,15776,-139,-13,-168
3749322032,4396,640,15984,-153,154,-47
3749323739,4092,252,16252,-91,126,-158
3749325451,3872,172,16332,-65,99,-227
3749327170,3568,716,16304,-30,132,-244
3749328920,3432,948,16696,-69,42,-92
3749330630,3920,1180,16476,-63,-73,-67
3749332346,4116,1444,16316,-120,-25,-31
3749334062,4324,1004,15604,-122,53,77
3749335774,5096,884,15724,-185,99,47
3749337486,4920,500,15688,-201,156,53
3749339218,4220,-468,15996,-107,277,12
3749340928,3676,-640,16476,0,222,-200
3749342636,3628,152,16676,34,128,-229
3749344344,3560,448,16388,32,192,-210
3749346049,3952,924,16300,58,193,-105
3749347756,4292,1716,16236,-40,87,-165
3749349485,4208,1508,16264,-98,123,-81
3749351193,4124,1164,16064,-37,162,-71
3749352900,3588,768,16048,-128,62,17
3749354606,3608,588,16004,-131,167,14
3749356318,3804,556,16088,-105,222,54
3749358025,4140,-432,16080,-8,132,84
3749359757,4148,-12,16404,36,202,-203
3749361465,4036,568,16428,57,273,-217
3749363171,3596,976,16376,72,244,-158
3749364880,3228,1180,16488,-42,133,-105
3749366587,3336,1132,16368,-89,143,-35
3749368295,3416,1112,16328,-59,131,-6
3749370027,3760,164,16348,-65,-23,68
3749371735,3828,692,16208,-45,88,-140
3749373441,3612,680,16380,-58,135,-71
3749375148,3888,716,16348,-22,92,-26
3749376855,4124,292,16084,-34,32,108
3749378559,4328,-364,16000,91,291,-189
3749380290,4260,48,16468,144,244,-252
3749381997,3776,640,16312,82,90,-142
3749383705,2984,1356,16380,61,129,-157
3749385412,3368,1776,16348,44,128,-54
3749387118,3820,1084,16432,-56,15,37
3749388824,3832,912,16464,-61,56,5
3749390552,3792,640,16332,2,69,-65
3749392261,3716,896,16316,-16,-13,-17
3749393965,3648,164,16228,-60,0,-34
3749396850,3844,760,16340,25,65,-42
3749398597,4660,1136,15728,34,46,-195
3749400308,4500,1360,15836,-38,119,-162
3749402022,3568,1124,16216,5,220,-200
3749403721,3012,1328,16552,-51,-11,-45
3749405415,3916,1304,15988,-113,-19,-11
3749407106,4032,1332,16520,-135,77,-22
3749408797,3816,788,16384,-73,-34,77
3749410487,4120,660,16080,-91,-87,-54
3749412179,3928,820,16120,-150,28,-81
3749413882,3856,700,16212,-102,128,-51
3749415590,3828,800,15944,-153,-36,-6
3749417298,3924,388,15884,-152,-33,-4
3749419005,4248,568,16024,-94,165,-199
3749420710,4332,320,16208,-47,76,-118
3749422416,3856,720,16184,-68,97,-289
3749424123,3724,1152,16288,-105,153,-251
3749425829,3864,1704,16264,-67,104,-121
3749427536,3724,796,16316,-156,-39,154
3749429241,3876,188,16192,-160,-29,122
3749430947,4080,304,16048,-86,146,-144
3749432683,4180,1000,16016,-62,-5,-49
3749434393,4688,660,15912,-163,109,83
3749436105,4632,160,16000,-181,240,30
3749437815,4320,-528,16036,-3,235,-186
3749439561,3780,48,16200,19,139,-229
3749441272,3804,172,16324,5,189,-213
3749443005,3884,1428,16416,65,242,-235
3749444721,4016,1360,16012,-11,119,29
3749446430,4144,1180,16144,-115,206,-40
3749448168,4068,848,16376,-96,198,-31
3749449903,3776,1064,16344,-44,96,-90
3749451624,3664,680,16208,-134,104,119
3749453428,3852,64,16436,-49,240,52
3749455143,3740,32,16556,1,181,-17
3749456848,4168,136,16232,30,79,-82
3749458541,4484,564,16116,-50,291,-130
3749460236,4044,516,16392,-11,316,-166
3749461924,3368,792,16480,46,178,-260
3749463678,2996,1100,16312,-65,99,-50
3749465386,3524,1068,16360,3,135,-40
3749467099,3764,1256,16468,-14,72,-11
3749468806,4124,-88,16252,-39,36,37
3749470513,3896,792,16140,-8,180,-103
3749472222,3412,1200,16516,-20,92,-105
3749473951,3732,1312,16684,-66,66,-19
3749475660,4156,-124,15880,-63,141,217
3749477367,3784,-1332,16104,170,204,-244
3749479073,3672,-536,16568,207,108,-448
3749480778,3604,1172,16436,122,43,-202
3749482485,3652,2104,16424,39,171,7
3749484217,4244,2036,16044,-33,141,100
3749485923,3964,1616,16296,-104,27,-77
3749487630,3428,484,16276,-92,42,76
3749489336,3364,164,16564,6,35,-100
3749491041,3424,652,16312,-58,-11,-69
3749492747,3756,304,16060,-64,14,38
3749494452,4896,488,15976,55,100,-2
3749496165,5008,96,16236,43,62,-85
3749497888,3928,1364,15788,32,89,-375
3749499599,2888,1616,16532,-13,152,-101
3749501311,3380,1588,16508,-51,-20,45
3749503052,3604,800,16448,-113,-82,176
3749504786,4364,424,16460,-128,176,-169
3749506525,4048,896,16248,-145,-77,36
3749508265,3696,404,16004,-55,-34,-117
3749509985,3780,1124,16116,-110,67,-147
3749511693,3992,724,16156,-124,105,35
3749513400,3784,1180,15904,-106,-16,-170
3749515108,4316,1336,15988,-179,-7,-60
3749516815,4548,688,16096,-122,132,-76
3749518521,4036,-128,16200,-91,87,-72
3749520228,3636,132,16104,-15,104,-359
3749521933,3764,972,16508,-39,147,-269
3749523713,3308,748,16508,3,29,-32
3749525513,3704,1132,16544,-84,-66,-25
3749527274,4276,1040,15852,-144,57,-12
3749528999,4428,1192,15704,-97,133,-47
3749530700,4896,1152,15716,-224,81,86
3749532392,4560,-176,15984,-217,193,53
3749534084,4132,-480,16244,-139,277,-15
3749535806,3660,-1116,16416,42,193,-198
3749537501,3584,244,16564,64,128,-317
3749539196,4068,1036,16180,79,259,-194
3749540886,4200,1560,15960,98,241,-184
3749542577,4144,1284,16200,-64,120,-28
3749544372,3964,1616,16348,-93,177,-164
3749546290,3620,1224,16380,-119,108,136
3749548062,3488,712,16140,-123,93,124
3749549748,3624,188,16380,-158,107,76
3749551444,4124,-576,15976,-7,167,32
3749553133,4796,-80,16220,34,226,-147
3749554817,4492,-32,16324,37,219,-191
3749556579,3684,776,16436,57,325,-325
3749558277,2872,1180,16360,45,164,-148
3749559971,3068,1260,16264,23,95,-111
3749561699,3596,1760,16396,-106,107,25
3749563400,3976,656,16444,-46,144,39
3749565095,3720,640,16356,-82,1,-8
3749566854,3608,388,16268,-102,-11,-3
3749569407,3688,464,16464,-29,78,104
3749571137,4104,-948,16236,56,51,40
3749572849,4268,-980,16016,111,133,-160
3749574557,4152,316,16128,193,265,-341
3749576266,3800,1552,16164,145,149,-184
3749578046,3208,1748,16272,-35,89,-32
3749579744,3488,1784,16316,-96,166,-37
3749581439,3424,1104,16392,-72,16,57
3749583132,3548,248,16436,-46,-31,33
3749584823,3492,388,16644,-51,-19,-52
3749586513,3832,624,16360,-22,74,-15
3749588262,3880,652,16036,17,9,-25
3749589962,4160,600,16036,10,10,-14
3749591670,4552,736,15760,11,181,-164
3749593377,4092,1336,15964,26,173,-193
3749595083,3340,1120,16276,4,54,-142
3749596791,2868,1196,16696,-34,61,-151
3749598504,3672,820,16504,-27,30,22
3749600301,4060,1116,16948,-117,48,-93
3749602104,3824,736,16512,-182,-11,17
3749603857,3840,676,16320,-117,35,-26
3749605579,3788,860,16036,-119,-13,59
3749607289,3860,468,16312,-172,49,-84
3749609084,4048,628,15980,-94,66,-56
3749610790,4200,588,15724,-49,18,-42
3749612489,4332,416,16172,-91,71,-103
3749614183,4348,224,16516,-77,206,-226
3749615876,4068,696,16192,4,230,-295
3749617566,3700,1240,16228,-37,53,-161
3749619259,3824,1296,16372,-153,40,-55
3749620959,3848,772,16472,-109,45,25
3749622666,3980,416,16232,-79,-18,45
3749624377,4032,488,15884,-141,-25,-63
3749626087,4328,636,15908,-119,140,-1
3749627793,4560,788,15652,-104,149,4
3749629523,4732,216,15908,-142,128,35
3749631231,4132,-412,16244,-62,298,-200
3749632936,3612,28,16632,41,223,-199
3749634643,3520,124,16456,66,136,-246
3749636348,3732,1572,16312,-8,111,-162
3749638053,4128,1256,16080,-39,204,-2
3749639783,4308,1408,16036,-32,187,-24
3749641491,4544,920,15988,-109,65,14
3749643198,3724,756,16192,-110,192,-87
3749644905,3640,588,16032,-47,134,34
3749646615,3512,228,16256,-58,109,84
3749648324,3768,156,16384,-94,165,-21
3749650056,4352,252,16300,27,178,-107
3749651764,4464,504,16088,48,179,-142
3749653469,4136,300,16220,-33,206,-157
3749655180,3240,1004,16456,38,290,-263
3749656888,2852,940,16744,-19,71,-26
3749658593,3200,944,16300,-39,36,11
3749660300,3584,712,16492,-85,116,100
3749662005,4364,84,16228,57,67,-14
3749663710,4424,568,16356,47,56,-103
3749665417,3580,500,16300,-53,70,-35
3749667124,3760,1620,16392,-7,206,-69
3749668828,4164,444,15828,-25,55,156
3749670557,4020,-436,16148,34,72,50
3749672267,3760,-764,16576,117,185,-260
3749673973,3468,696,16316,120,49,-330
3749675681,3324,1540,16112,84,55,-228
3749677385,3416,1656,16276,15,124,53
3749679090,4132,1936,16496,-78,76,-58
3749680820,3744,756,16276,-87,-47,76
3749682529,3716,700,16044,-35,65,0
3749684239,3560,548,16440,-40,40,21
3749685948,3656,468,16316,-45,14,-23
3749687653,3688,504,16428,-48,59,-9
3749689359,4564,124,15824,11,101,27
3749691088,4464,408,15960,61,112,-349
3749692796,3572,1904,16176,-2,82,-303
3749694502,3092,1716,16588,-49,115,-161
3749696210,3352,1612,16468,-126,43,99
3749697917,4060,612,16420,-123,-8,-52
3749699621,4052,908,16552,-149,11,-120
3749701349,4348,180,16032,-109,-7,75
3749703072,3908,860,15820,-54,34,-115
3749704789,4004,840,15988,-102,86,-80
3749706498,3932,1044,16060,-131,160,-159
3749708208,4036,1224,16004,-124,71,-22
3749709918,4288,1136,16176,-144,36,-113
3749711649,4296,1084,16348,-176,72,-45
3749713356,3864,-568,16196,-73,119,-58
3749715065,3700,272,16468,16,73,-298
3749716773,3572,644,16448,-37,42,-141
3749718479,3636,900,16412,-34,66,-83
3749720187,3752,1052,16064,-116,-66,29
3749721915,4432,1308,15736,-140,27,-140
3749723622,4564,1800,15588,-183,143,-97
3749725330,4720,656,15828,-168,221,132
3749727045,3956,-136,16288,-163,112,17
3749728795,3788,-1200,16472,-49,218,-102
3749730545,3700,-752,16492,74,262,-251
3749732270,3784,104,16692,78,112,-171
3749733959,4428,1520,16188,50,170,-232
3749735638,4744,1876,15808,-3,267,-125
3749737318,4360,1188,15904,7,193,-64
3749738998,3260,1324,16340,-90,80,-110
3749741581,3548,1096,16292,-109,181,3
3749743373,3464,1024,16196,-164,50,154
3749745074,4228,-664,16132,-92,6,134
3749746789,5036,-460,15984,-14,323,-168
3749748486,4856,-480,16028,69,359,-196
3749750179,3420,744,16476,133,268,-365
3749751870,2796,1132,16352,-19,186,-107
3749753621,2960,1348,16312,18,211,-91
3749755328,3308,1552,16368,-27,53,76
3749757041,4336,896,16340,-98,91,-11
3749758748,4100,940,16476,-105,151,9
3749760454,3516,620,16252,-54,48,8
3749762159,3064,692,16788,-105,-7,-3
3749763890,4244,-324,16020,-41,122,216
3749765600,4292,-1424,15848,168,142,-124
3749767306,4244,-1048,16176,218,127,-351
3749769011,4092,904,16468,155,166,-396
3749770717,3668,2268,16340,47,239,-41
3749772422,3268,2064,16520,2,141,18
3749774150,3388,1908,16712,-156,55,29
3749775859,3368,252,16324,-38,41,75
3749777566,3344,248,16328,58,8,-28
3749779271,3812,432,16612,-40,-74,9
3749780978,3992,712,16424,-47,108,15
3749782683,4384,500,15992,13,62,21
3749784391,4264,184,15972,33,10,-52
3749786107,3772,844,15872,26,117,-310
3749787829,3420,1452,16168,68,159,-208
3749789545,3320,1856,16384,-38,-58,-86
3749791253,3832,1284,16132,-106,-100,70
3749792988,4400,380,16788,-100,233,-144
3749794728,3404,1088,16624,-170,-68,9
3749796436,3512,424,16268,-138,-132,55
3749798129,3696,1624,15932,-109,5,-103
3749799820,3968,512,16200,-101,84,101
3749801511,3820,452,16052,-104,61,-74
3749803202,4192,736,15828,-132,-34,-74
3749804893,4360,812,15640,-113,128,-115
3749806595,4336,112,16228,-137,83,40
3749808301,4332,-296,16064,-82,113,-132
3749810006,3412,684,16472,-23,158,-332
3749811718,3564,1060,16436,-2,71,-144
3749813425,3820,1332,16584,-74,3,-101
3749815162,3904,776,16124,-169,-15,46
3749816872,4020,568,15672,-75,126,-77
3749818579,4536,712,15724,-152,-20,79
3749820287,4504,348,15380,-143,11,32
3749821996,4572,944,15808,-184,264,-10
3749823700,4404,-112,15932,-34,240,15
3749825430,3868,-260,16352,9,152,-109
3749827139,3816,-220,16704,-10,156,-183
3749828845,3768,1132,16636,47,262,-246
3749830550,3720,996,16148,-21,55,48
3749832257,3988,844,15956,-19,70,-41
3749833963,4640,1312,16100,-54,225,-173
3749835692,4320,1216,15816,-66,148,-52
3749837401,3928,1176,16024,-104,109,-2
3749839108,3468,224,16200,-138,181,104
3749840814,3452,368,16468,-42,167,-97
3749842520,3840,0,16176,-13,103,17
3749844238,4212,96,16356,-22,193,-95
3749846022,4224,728,16388,-4,254,-91
3749847725,3780,580,16216,50,159,-205
3749849429,3304,952,16252,-38,198,-106
3749851128,3180,652,16344,-9,207,-96
3749852908,3344,1244,16412,-16,61,-35
3749854685,3656,168,16420,-46,14,137
3749856411,4240,240,16336,38,167,-77
3749858097,4296,472,16252,15,105,-59
3749859780,3908,736,16436,18,102,-166
3749861459,3828,1380,16240,-78,147,55
3749863138,3996,440,16036,-17,144,142
3749864817,3972,-232,15916,48,121,-119
3749866555,3896,-336,16160,78,122,-206
3749868322,3068,1320,16304,141,168,-253
3749870124,3212,1676,16500,94,73,-56
3749871874,3708,1788,16208,21,-24,-12
3749873602,4024,1504,16312,-100,127,102
3749875315,4232,1052,16288,-52,112,41
3749877111,3980,1256,16416,-62,39,16
3749878815,3452,44,16264,-100,96,37
3749880516,3324,380,16616,3,97,-135
3749882208,3640,492,16420,-6,4,-75
3749883897,4416,184,15912,4,3,-19
3749885588,4532,444,16124,21,214,-269
3749887338,3236,1636,16308,28,70,-381
3749889041,2720,2008,16764,-17,-36,-182
3749890749,3684,1028,16448,-126,60,137
3749892455,3780,904,16500,-125,43,16
3749894161,3884,440,16524,-131,-107,-21
3749895870,4452,760,16032,-81,-36,-60
3749897599,4020,820,16068,-83,120,47
3749899306,3884,704,16176,-127,85,-77
3749901017,3804,784,16084,-159,80,-80
3749902726,3876,808,15944,-101,135,-67
3749904437,4116,944,16404,-96,37,-110
3749906193,4020,620,16340,-108,-19,-44
3749908083,3848,-192,16220,-72,113,-155
3749909838,3616,508,16256,-4,113,-286
3749911538,3744,1184,16196,-28,-21,-157
3749913987,3924,856,16168,-127,27,118
3749915706,4356,900,15688,-74,56,-113
3749917409,4632,1632,15852,-179,71,-63
3749919133,4836,1468,15948,-214,182,42
3749920831,4440,392,16140,-189,244,134
3749922528,3900,-936,16328,-98,136,-51
3749924246,3608,-536,16548,-6,218,-213
3749925953,3680,-416,16652,98,202,-142
3749927654,3992,844,16324,122,124,-222
3749929436,4532,1472,15900,18,179,-109
3749931141,4672,1364,15884,-4,254,-56
3749932856,3820,1452,16104,-42,151,-128
3749934583,3384,1380,16448,-150,93,-27
3749936300,3424,1240,16452,-179,175,126
3749938009,3556,348,16500,-148,107,221
3749939797,4036,-380,16292,-47,19,2
3749941496,5068,-356,15884,-27,233,-126
3749943179,4724,-320,15976,40,391,-223
3749944871,3448,592,16400,122,245,-251
3749946557,2896,1056,16264,45,124,-242
3749948237,3100,1692,16324,4,155,6
3749949981,3464,1208,16324,18,86,108
3749951685,3996,948,16420,-30,26,34
3749953394,4168,820,16220,-106,137,-13
3749955110,3852,876,16264,-94,124,-26
3749956824,3368,684,16692,-137,5,80
3749958531,3752,-464,16204,-88,68,35
3749960252,3928,-1224,15876,129,151,-42
3749961996,3888,-1456,16168,245,108,-212
3749963707,4036,996,16408,167,95,-403
3749965425,4148,2076,15872,54,323,-124
3749967137,3968,2840,16268,-15,168,-26
3749968846,3700,2064,16740,-113,8,128
3749970573,2944,472,16380,-117,56,23
3749972320,3392,660,17016,-47,4,80
3749974033,3528,268,16608,-55,-101,93
3749975759,4264,728,16088,-91,-2,99
3749977475,5128,-160,15820,9,162,-4
3749979183,4000,176,16160,48,56,-299
3749980889,3424,300,16076,48,49,-277
3749982620,3204,1708,16100,50,245,-375
3749984331,3220,2240,16456,-38,-26,27
3749986037,3988,1324,16120,-79,-113,178
3749987745,4532,520,16780,-169,166,-192
3749989452,3460,1208,16520,-122,-20,-63
3749991158,3252,880,16476,-93,-73,4
3749992889,3472,1416,16248,-114,-20,21
3749994597,4124,732,16260,-173,49,156
3749996303,4192,16,15768,-100,-23,-38
3749998010,4816,232,15624,-76,-13,-79
3749999717,4412,672,16008,-81,220,-194
3750001423,4036,592,16144,-58,133,-104
3750003152,3476,588,16556,-74,87,-252
3750004861,3300,740,16576,-101,87,-161
3750006568,3536,616,16652,-57,84,-180
3750008276,3668,1036,16304,-92,-101,-47
3750009984,3956,1016,16264,-119,-86,-61
3750011688,4080,1196,15956,-154,92,-6
3750013417,4988,652,15516,-146,40,109
3750015128,4896,368,15660,-182,195,31
3750016837,4652,128,15908,-165,279,-5
3750018544,4188,-60,16352,-8,284,-113
3750020252,3608,-160,16644,18,143,-114
3750021961,3396,-116,16620,18,151,-203
3750023672,3452,832,16848,61,223,-177
3750025380,3668,1188,16296,48,30,-57
3750027086,4464,1264,16188,-93,89,-98
3750028803,4928,1296,15684,-114,229,-62
3750030524,4276,1384,15764,-98,216,-109
3750032240,3472,-60,15900,-134,60,109
3750033975,3388,212,16388,-60,225,-170
3750035687,3556,336,16568,-3,207,-51
3750037396,3988,224,16216,48,106,-17
3750039103,4624,576,16500,-30,270,-80
3750040809,4452,708,16568,8,324,-199
3750042514,3676,1540,16452,30,220,-172
3750044233,3088,660,16424,-70,49,66
3750045952,3052,652,16544,-39,206,-67
3750047661,3064,664,16436,-23,92,-27
3750049369,4060,372,16328,-1,-17,52
3750051074,4348,428,16180,-64,153,-17
3750052780,4004,228,16252,-9,174,-101
3750054512,3412,1060,16812,-23,84,-149
3750056222,4036,340,16428,-60,95,103
3750057931,3836,-84,16224,50,249,-123
3750059636,3776,-164,16288,106,183,-195
3750061342,3608,592,16548,104,70,-211
3750063047,3368,1404,16348,41,144,-60
3750064776,3468,1636,16248,64,99,-37
3750066484,4112,1872,16304,-55,1,72
3750068192,3764,512,16208,-93,57,105
3750069901,3716,300,16232,-29,143,-52
3750071608,3592,716,16480,4,1,-34
3750073315,3704,568,16604,-38,25,-49
3750075045,3880,248,16436,-37,104,10
3750076752,4288,372,15908,13,68,-72
3750078458,4624,704,15940,-28,67,-189
3750080166,3596,620,16240,5,155,-339
3750081867,2864,1516,16648,48,110,-369
3750083604,3280,1524,16436,-89,-87,13
3750086553,4132,764,16692,-167,120,102
3750088303,4204,860,16136,-71,-54,-119
3750090008,3856,856,16200,-155,-34,11
3750091702,3668,480,16180,-139,49,79
3750093400,3992,364,16392,-96,155,-46
3750095105,3952,468,15848,-90,-29,-155
3750096873,4432,1040,16124,-127,110,-128
3750098565,4412,856,16344,-130,166,-50
3750100255,4276,124,16408,-77,109,-162
3750101942,3644,848,16148,-79,86,-295
3750103626,3764,1020,16476,-65,92,-217
3750105315,3616,1228,16604,-94,22,-15
3750107053,3836,448,16284,-138,-51,18
3750108787,4028,580,16124,-125,36,-51
3750110498,4068,776,15804,-58,76,-52
3750112214,4764,1356,15724,-172,57,-8
3750113924,4848,416,15848,-196,259,132
3750115681,4364,-464,15936,-87,263,89
3750117420,3808,-872,16312,5,170,-197
3750119130,3528,172,16556,68,203,-347
3750120844,3868,1528,16388,45,195,-87
3750122557,3940,1484,16252,-19,109,30
3750124289,4280,916,16092,-107,169,-76
3750126014,4088,848,16308,-33,156,-125
3750127764,3880,1012,16136,-13,88,-112
3750129486,3400,1484,16068,-116,106,14
3750131201,3416,472,16136,-126,192,111
3750132909,4028,48,16260,-10,94,20
3750134620,4248,-164,16164,-8,35,-1
3750136330,4872,280,16092,-28,301,-158
3750138153,3788,356,16436,85,355,-155
3750139875,2792,680,16536,61,146,-244
3750141580,2672,1096,16576,-10,99,-221
3750143276,3448,1260,16512,-15,124,65
3750144969,4004,800,16460,-55,89,110
3750146660,3952,0,16680,-63,1,108
3750148351,3944,628,16196,-21,119,-266
3750150052,3824,1672,16376,-86,75,30
3750151758,3828,448,16516,-85,25,120
3750153464,3744,-52,15832,-92,81,127
3750155170,3636,-1836,16036,180,148,-156
3750156920,3992,288,16284,236,136,-414
3750158774,3716,1900,15740,74,154,-160
3750160566,3772,2520,15992,43,224,-42
3750162295,4144,2200,16316,-70,98,85
3750163998,3392,932,16316,-113,8,38
3750165743,2912,104,16296,8,62,-2
3750167447,3196,256,16712,12,-25,15
3750169176,3440,868,16428,-93,-85,50
3750170872,4548,68,15924,-89,78,101
3750172604,5104,48,16104,10,152,-31
3750174303,4376,-240,15848,52,48,-245
3750175999,2964,1384,16100,57,142,-475
3750177780,3096,2284,16596,-29,94,-50
3750179538,3368,2060,16292,-54,-45,95
3750181249,4452,320,16256,-161,67,104
3750182956,3976,1204,16848,-131,163,-334
3750184673,3656,504,16344,-141,-123,168
3750186390,3092,128,16340,-51,-130,-25
3750188104,3944,1260,16388,-164,103,28
3750189845,3764,252,16228,-105,48,9
3750191560,4232,468,15680,-67,-30,-56
3750193267,5052,780,15872,-177,84,-88
3750194983,4640,808,15832,-109,258,-141
3750196700,3872,-72,16052,-53,112,-174
3750198414,3452,8,16532,-22,33,-304
3750200156,3448,1164,16740,-91,130,-210
3750201872,3188,972,16924,-31,-10,-61
3750203578,3820,1380,16508,-58,-78,-38
3750205294,4152,1116,15968,-190,-33,16
3750207009,4972,1632,15584,-121,106,-31
3750208716,5128,468,15624,-241,147,249
3750210429,4724,-536,15588,-216,222,161
3750212144,3928,-932,16340,-47,341,-180
3750213886,3656,-348,16568,112,157,-284
3750215753,3532,744,16428,-6,149,-143
3750217506,3692,736,16500,-22,210,-64
3750219224,4364,1672,16196,18,160,-196
3750220941,4352,1228,16192,-83,71,-7
3750222649,4284,1212,16096,-101,243,-157
3750224353,3776,1368,16252,-118,197,-88
3750226054,3344,512,16012,-98,88,36
3750227751,3592,16,16316,-146,147,123
3750229442,3840,-400,16240,-50,165,57
3750231184,4712,292,16124,75,207,-125
3750232895,4312,440,16360,26,261,-112
3750234625,3476,860,16708,56,321,-203
3750236344,2948,1104,16532,49,202,-191
3750238059,3152,1408,16496,-2,16,-64
3750239776,3612,1176,16252,-133,134,135
3750241555,3944,20,16428,-27,33,-3
3750243259,3936,272,16192,-6,26,-143
3750244962,3620,508,16044,-83,64,-48
3750246666,3632,972,16432,-8,171,-59
3750248367,3584,760,16668,-33,37,57
3750250063,4008,-524,16244,58,54,32
3750251805,4232,-292,16448,142,252,-288
3750253511,4100,1144,16440,120,151,-283
3750255227,3784,1604,16288,68,152,-149
3750256944,3172,1504,16356,-19,119,91
3750259503,3628,1148,15968,-35,-39,-41
3750261226,3864,940,16404,-11,-49,5
3750262997,4024,548,16348,-60,52,14
3750264751,3872,412,16424,-59,29,17
3750266451,3788,164,16372,-19,-10,-62
3750268148,3876,644,16416,-34,38,-39
3750269842,4396,612,15852,23,147,-178
3750271538,4200,1284,16108,-13,112,-156
3750273286,3716,1060,16152,6,66,-155
3750274997,2928,1240,16676,-16,97,-170
3750276715,3532,892,16472,-48,-10,-67
3750278425,4156,1596,16164,-81,42,-98
3750280201,3920,1104,16308,-206,28,150
3750282017,4044,352,16024,-88,-13,1
3750283873,4112,876,16220,-89,-17,-72
3750285581,3812,548,16468,-147,159,-9
3750287270,3916,544,16128,-139,177,1
3750288953,4004,540,15696,-101,-6,-100
3750290634,4252,860,16080,-127,66,-163
3750292313,4408,472,16488,-146,124,-70
3750294045,4144,284,16456,-28,177,-248
3750295743,3576,952,16348,-44,25,-246
3750297461,3852,1636,16552,-100,76,-124
3750299176,3852,1456,16260,-108,89,99
3750300886,3928,328,16000,-112,-27,2
3750302594,4024,720,16092,-151,48,-37
3750304305,4272,664,16020,-118,84,20
3750306014,4596,840,15604,-114,140,24
3750307720,4608,88,16052,-104,149,28
3750309426,4088,-392,16484,-41,275,-104
3750311134,3720,-456,16432,-2,259,-182
3750312842,3832,212,16428,60,117,-274
3750314550,3696,1552,16184,-39,159,-133
3750316260,3992,1344,16044,-43,205,6
3750317967,4416,1140,16080,-62,178,-112
3750319669,4092,944,16228,-96,72,-72
3750321378,3520,1036,16040,-50,167,-64
3750323155,3548,1068,15960,-85,170,73
3750324945,3576,452,16100,-77,98,37
3750326699,3928,44,16532,-66,199,48
3750328445,4632,144,15696,53,204,-110
3750330173,4492,464,16304,32,224,-202
3750331870,3788,744,16296,13,283,-197
3750333573,3176,824,16588,44,231,-146
3750335361,3084,824,16264,-39,37,-59
3750337061,3436,904,16248,-30,44,-53
3750338754,3696,984,16440,-40,119,113
3750340439,4272,-232,16320,-6,54,-21
3750342120,4076,408,16108,0,70,-220
3750343808,3636,1196,16340,-44,130,-96
3750345545,3768,1192,16516,-43,96,97
3750347245,3988,448,15960,-52,41,215
3750348965,3700,-1076,15932,81,137,-109
3750350682,3980,-192,16384,220,187,-334
3750352390,3624,1088,16196,125,37,-153
3750354107,3420,1960,16080,77,108,-105
3750355878,4024,2156,16064,-37,142,75
3750357590,3972,1432,16220,-79,35,23
3750359299,3424,160,16216,-106,-41,25
3750361001,3428,184,16504,-98,76,-65
3750362692,3368,556,16248,-42,48,38
3750364409,3792,28,16008,-12,-25,-32
3750366183,4228,388,16188,-5,20,-128
3750367893,5100,340,16160,48,171,-119
3750369629,3548,1400,15904,69,130,-359
3750371351,2924,1796,16524,-43,77,-218
3750373060,2860,2184,16688,-57,109,-170
3750374776,3756,884,16644,-133,-35,328
3750376603,4140,256,16816,-125,86,-183
3750378308,3888,652,16296,-110,-71,22
3750379999,3860,300,15728,-10,-56,22
3750381725,3988,1136,15836,-89,47,-9
3750383425,4016,592,16016,-194,177,-40
3750385126,3852,848,16164,-124,142,-177
3750386884,4348,1168,15952,-124,-37,-26
3750388592,4568,844,16160,-182,160,-196
3750390301,4048,-112,16336,-95,167,-40
3750392054,3760,-604,16192,5,110,-182
3750393765,3556,760,16348,-43,53,-256
3750395481,3456,884,16516,-23,97,-134
3750397224,3860,1436,16336,-95,-67,76
3750398938,4268,980,15916,-117,-93,134
3750400648,4432,1144,15632,-166,176,-103
3750402362,4948,1232,15876,-162,158,82
3750404092,4728,408,15772,-157,147,114
3750405813,3968,-728,16080,-192,204,19
3750407547,3492,-1148,16668,32,263,-275
3750409257,3604,344,16364,74,90,-183
3750410961,3832,352,16512,59,61,-106
3750412671,4504,1672,16284,19,278,-255
3750414378,4196,1408,16152,-38,170,-79
3750416087,3888,1364,16072,-19,125,-101
3750417798,3684,1524,16284,-174,114,19
3750419505,3636,1128,16012,-104,175,-21
3750421211,3744,444,16272,-157,22,261
3750422921,3992,-668,16088,-120,23,263
3750424632,4588,-532,16284,16,301,-219
3750426339,4356,244,16316,122,257,-254
3750428159,3500,1056,16544,47,231,-183
3750429888,3092,1004,16636,-29,238,-122
3750432466,3276,1720,16220,19,86,-107
3750434196,4020,840,16328,-112,57,125
3750435906,4004,496,16644,-114,163,-25
3750437613,3492,668,16456,-60,33,-17
3750439320,3240,472,16492,-34,-26,-69
3750441017,3648,696,16208,-69,64,-31
3750442707,4280,-324,16000,22,135,82
3750444399,4364,-368,15980,150,139,-126
3750446089,4156,284,16028,109,171,-296
3750447780,4012,972,16184,109,235,-283
3750449472,3344,1780,16360,59,156,-101
3750451172,3612,1828,16412,-74,53,80
3750452889,3460,1276,16544,-148,75,105
3750454612,3540,424,16576,-11,31,3
3750456328,3696,640,16684,-50,-56,-40
3750458036,3920,624,16472,-90,-12,14
3750459771,3916,340,16420,-20,138,-87
3750461483,3948,632,16068,18,-32,-40
3750463191,4324,752,15892,12,72,-166
3750464898,4244,1332,15796,2,194,-191
3750466604,3756,1264,16240,17,119,-192
3750468313,3240,1392,16500,-40,-19,-47
3750470123,3748,428,16360,-42,56,-12
3750471891,4104,1116,16220,-54,151,-122
3750473617,3816,1048,16280,-147,-34,11
3750475335,4060,696,16060,-100,5,27
3750477061,3924,544,15972,-135,37,-19
3750478785,3740,532,16032,-133,21,-109
3750480580,3864,1108,16024,-158,47,-25
3750482290,4156,104,15656,-94,61,10
3750483990,4380,368,16136,-115,41,-162
3750485717,4456,216,16352,-96,62,-192
3750487421,3992,716,16236,4,209,-232
3750489123,3560,960,16572,-54,102,-201
3750490839,3640,1420,16432,-78,21,-199
3750492544,3760,1480,16448,-174,54,72
3750494247,3900,204,15828,-94,94,48
3750495943,3988,364,16080,-81,44,-111
3750497647,4156,528,15820,-112,13,-70
3750499345,4552,788,15852,-86,150,29
3750501103,4696,156,16120,-130,165,57
3750502828,4624,-152,16064,-104,195,-103
3750504553,3956,-64,16356,-31,246,-179
3750506274,3780,148,16364,68,209,-278
3750507990,3676,1452,16432,-13,108,-164
3750509744,3740,1332,16356,-51,127,-51
3750511489,4176,1404,15964,-31,227,-38
3750513200,4328,856,16020,-92,82,-59
3750514909,4200,1152,15984,-87,90,-132
3750516616,3916,920,16088,-133,198,95
3750518324,3656,-76,16188,-59,183,23
3750520063,3564,268,16436,-40,107,-86
3750521800,3832,136,16468,-3,138,-49
3750523511,4340,504,16240,45,214,-66
3750525223,4072,156,16312,-1,201,-128
3750526930,3336,936,16356,-14,243,-231
3750528650,3096,956,16540,-1,212,-94
3750530379,3244,916,16404,-31,75,-99
3750532096,3400,852,16632,-88,38,93
3750533803,3888,184,16372,-40,82,124
3750535515,4332,228,16208,45,115,-34
3750537223,3836,408,16220,3,49,-164
3750538930,3644,1968,16556,-41,198,-16
3750540637,3968,1288,16408,-64,160,214
3750542371,4052,-500,16040,37,97,39
3750544082,3708,-688,16304,106,142,-253
3750545791,3832,-176,16292,174,181,-307
3750547499,3556,1556,16308,88,74,-164
3750549204,3296,1464,16276,-29,15,-1
3750550910,3984,1808,16524,-40,128,-12
3750552643,3984,1272,16372,-72,27,53
3750554352,3892,692,16228,-59,4,-81
3750556089,3424,456,16228,-93,114,-5
3750557799,3444,396,16328,-6,88,-6
3750559506,3448,464,16340,-24,5,-22
3750561217,4524,392,16068,-8,6,-39
3750562952,4764,680,16128,4,193,-167
3750564668,4064,888,16080,31,139,-266
3750566375,2992,1488,16616,7,58,-271
3750568086,3328,1660,16424,-60,57,54
3750569794,3756,976,16472,-75,39,136
3750571500,3996,788,16632,-150,-14,-48
3750573231,4120,380,16352,-162,-57,22
3750575036,3924,808,15788,-44,72,-91
3750576896,4172,660,15980,-121,35,-74
3750578678,4084,968,15992,-163,125,-136
3750580402,3764,1056,15988,-127,109,-29
3750582115,4044,1028,16388,-99,44,-141
3750583930,4176,452,16404,-162,33,-56
3750585621,4048,-48,16220,-111,158,-112
3750587294,3788,396,16268,-2,148,-202
3750588976,3736,576,16212,-34,5,-111
3750590653,3576,864,16360,-74,37,-146
3750592328,4032,1136,16136,-57,26,32
3750594006,4408,1076,15788,-128,28,-40
3750595699,4396,1416,15700,-200,97,-77
3750597394,4756,1036,15660,-204,229,26
3750599096,4144,-76,16284,-173,128,89
3750600798,3772,-1176,16340,-74,173,-135
3750602493,3432,-828,16320,-8,252,-283
3750605223,4008,512,16244,125,121,-196
3750606975,4568,1572,15968,11,163,-122
3750608687,4680,1544,16076,-44,273,-128
3750610410,3764,1676,16260,-5,197,-64
3750612125,3180,912,16524,-125,-19,30
3750613839,3232,1228,16464,-177,183,-24
3750615566,3508,920,16316,-145,188,110
3750617255,4036,-516,16144,-48,17,196
3750618935,4908,-528,16036,-64,207,-85
3750620624,4880,-660,16148,41,350,-197
3750622311,3744,732,16384,133,297,-332
3750623993,2696,508,16424,40,122,-131
3750625720,2992,1892,16448,-2,227,-189
3750627420,3300,1996,16332,-13,104,24
3750629113,4432,1288,16072,-41,49,120
3750630813,4244,688,16564,-173,167,13
3750632510,3612,692,16380,-85,115,-74
3750634203,3004,1140,16764,-82,-24,49
3750635925,3916,-480,15960,-94,23,198
3750637647,4160,-1012,16140,-23,175,33
3750639364,3892,-1508,16272,228,155,-273
3750641074,4308,580,16352,201,72,-403
3750642780,4172,2028,16140,45,298,-112
3750644488,3356,2008,16388,64,222,-112
3750646224,3528,2332,16676,-108,63,59
3750647934,3160,112,16324,-104,25,78
3750649642,3056,652,17180,-10,5,-40
3750651348,3628,432,16692,-6,-110,12
3750653054,4252,624,16032,-64,2,61
3750654760,4356,60,16216,-10,154,-42
3750656524,4560,304,16084,67,95,-144
3750658261,3748,808,15804,22,48,-228
3750659975,3396,1248,15872,13,222,-222
3750661721,3216,2132,16476,-20,57,-115
3750663434,3396,1448,16344,-28,-132,110
3750665142,4948,128,16680,-109,155,-85
3750666875,3280,1228,17012,-138,39,-147
3750668584,3432,940,16396,-163,-86,22
3750670291,3284,1372,15948,-115,-71,-27
3750671997,4124,496,16264,-174,100,174
3750673736,3824,484,15784,-135,28,-129
3750675449,4348,752,15784,-89,-41,-103
3750677180,4648,748,15952,-94,153,-105
3750678889,4096,160,16456,-110,104,-59
3750680596,3912,644,16392,-32,124,-347
3750682303,3544,1152,16356,-61,145,-235
3750684033,3716,644,16436,-37,107,-116
3750685744,3556,1256,16480,-102,-55,-106
3750687475,3744,996,16124,-125,-70,-4
3750689184,3992,876,16108,-85,99,-38
3750690892,4472,496,15700,-174,-7,113
3750692599,4660,596,15444,-163,164,-44
3750694307,4660,452,15648,-144,255,15
3750696039,4552,-188,16152,-51,259,-101
3750697772,3740,132,16560,-28,171,-161
3750699483,3616,-60,16632,-25,169,-149
3750701192,3556,592,16504,84,207,-250
3750702898,3776,1156,16360,17,51,-94
3750704607,4488,1680,15872,-53,146,-34
3750706314,4840,1536,15812,-80,202,60
3750708072,4488,876,15816,-69,140,-90
3750709782,3532,876,15924,-134,109,-40
3750711490,3332,308,16240,-131,206,36
3750713196,3520,436,16488,-37,211,-2
3750714900,3592,-184,16472,-29,78,-11
3750716621,4420,748,16264,20,279,-182
3750718413,4904,948,16332,-15,285,-86
3750720114,3976,760,16476,33,248,-292
3750721805,2916,996,16612,-58,137,-86
3750723496,2996,884,16404,9,108,-23
3750725189,3192,1036,16172,-36,41,40
3750726880,3932,152,16272,-21,12,2
3750728598,4340,504,16500,14,144,77
3750730359,4344,152,16376,2,109,89
3750732188,3604,772,16488,14,107,-220
3750733990,3968,1368,16304,-57,161,50
3750735745,4136,-52,16056,45,156,52
3750737473,3932,-560,16268,78,90,-171
3750739274,3692,-288,16320,85,101,-304
3750740974,3204,1136,16456,115,78,-169
3750742671,3176,1260,16568,51,38,-59
3750744372,3712,2028,16292,-10,56,-114
3750746064,4016,1504,16316,-105,73,111
3750747756,3852,948,16328,-2,-14,-51
3750749508,3708,428,16676,-109,-14,11
3750751212,3688,348,16016,-60,112,-102
3750752924,3484,544,16416,-33,117,-7
3750754632,4036,284,15852,-19,-66,-25
3750756340,4252,256,16072,-25,-21,-105
3750758046,4388,420,15900,46,214,-267
3750759781,3396,1596,16492,47,72,-336
3750761523,3004,1480,16760,-92,-73,13
3750763251,3732,1320,16384,-137,45,33
3750764969,3932,1012,16580,-144,35,71
3750766681,4280,128,16152,-116,-107,-25
3750768390,4340,784,15872,-117,75,-67
3750770127,4156,700,15948,-84,115,-31
3750771838,4064,932,16072,-92,81,-99
3750773546,3896,692,16152,-171,70,-101
3750775256,3964,1192,15764,-126,156,-153
3750777793,4104,304,16516,-105,-15,0
3750779517,3740,-148,16424,-75,107,-222
3750781303,3796,328,16156,-19,185,-288
3750783001,3852,972,16392,11,36,-138
3750784700,3764,904,16292,-124,-14,-8
3750786409,4252,812,15968,-80,95,-32
3750788115,4256,1072,16028,-74,84,-79
3750789816,4724,1232,15724,-162,83,26
3750791570,4752,1032,15996,-232,264,14
3750793276,4256,208,16332,-172,260,63
3750794985,3828,-684,16300,-53,142,-91
3750796695,3496,-408,16716,-28,191,-175
3750798403,3796,520,16340,109,218,-213
3750800112,4096,980,16088,107,129,-127
3750801845,4616,1212,15784,-13,159,-84
3750803553,3948,1164,16144,-42,303,-148
3750805261,3612,1328,16140,-10,185,-106
3750806969,3296,1056,16328,-91,24,-20
3750808675,3536,1204,16384,-214,184,79
3750810381,3976,-84,16304,-76,84,110
3750812120,4292,-248,16088,-54,39,69
3750813836,4988,-784,16028,-28,228,-152
3750815546,3864,484,16532,101,419,-368
3750817255,3220,724,16748,92,291,-220
3750818960,2712,920,16324,26,80,-137
3750820668,3224,1436,16236,-16,124,-29
3750822400,3956,1276,16272,57,78,26
3750824110,4444,1208,16392,-33,58,53
3750825819,3940,760,16192,-154,106,1
3750827604,3148,1204,16492,-65,100,-49
3750829401,3600,48,16208,-66,-59,189
3750831167,4056,-592,16196,-57,-14,122
3750832903,3888,-1784,16244,105,192,-118
3750834603,4200,160,16496,259,143,-480
3750836285,4300,1972,15484,63,67,-130
3750837970,4200,2108,15984,-12,284,-112
3750839651,3876,2752,16840,-36,192,-68
3750841330,2848,596,16476,-93,-97,150
3750843069,2748,260,16244,-76,-27,-6
3750844770,3548,928,16904,-33,45,10
3750846555,4172,1220,16128,-45,-63,142
3750848274,4676,-516,16108,-85,71,122
3750849986,4936,-436,16112,28,194,-137
3750851693,3880,380,15952,84,63,-282
3750853426,3356,1240,15556,74,119,-293
3750855135,3328,2000,16248,-18,232,-255
3750856843,3372,1996,16348,-73,11,37
3750858550,4688,500,16260,-107,-19,-11
3750860258,3664,564,16752,-131,124,-218
3750861966,3436,880,16604,-129,40,-63
3750863696,3048,940,16348,-77,-67,-65
3750865407,3832,1372,16056,-160,-6,159
3750867111,4176,860,15984,-174,34,179
3750868826,4476,52,15876,-83,32,-85
3750870541,4776,852,15784,-125,86,-145
3750872251,3784,644,16284,-113,206,-88
3750873987,3992,408,16068,-97,180,-73
3750875701,3568,644,16504,-54,77,-264
3750877411,3584,312,16692,-60,101,-89
3750879119,3588,260,16768,-32,107,-196
3750880835,3672,980,16544,-61,-94,-124
3750882556,4132,1516,15920,-132,-28,-88
3750884271,4696,832,15512,-175,102,192
3750885981,5132,444,15348,-161,137,123
3750887689,4716,360,15612,-156,190,-47
3750889400,4396,36,16068,-53,305,-139
3750891108,3956,152,16460,-12,299,-127
3750892816,3504,-36,16692,6,145,-135
3750894550,3440,668,16640,-12,174,-152
3750896259,3972,716,16360,64,123,-69
3750897967,4204,1000,16160,42,76,-99
3750899674,4616,1476,15872,-74,91,-134
3750901381,4416,1284,15964,-81,239,-71
3750903087,3992,1140,15988,-93,185,-26
3750904816,3416,-36,15916,-137,78,12
3750906524,3580,476,16364,-113,216,-76
3750908232,3796,-128,16400,4,163,99
3750909946,4072,-88,16304,33,175,-99
3750911654,4296,644,16396,-3,219,-169
3750913360,3912,1020,16392,65,286,-178
3750915143,3360,840,16432,-41,134,-13
3750916844,3316,688,16252,-32,82,-46
3750918539,3180,992,16360,-41,153,15
3750920231,3688,164,15968,12,38,50
3750921921,3972,320,16272,1,34,-11
3750923611,4032,452,16248,-59,127,-68
3750925359,3836,820,16328,7,188,-103
3750927063,4060,720,15976,-16,32,23
3750928772,4092,228,16332,-37,46,-12
3750930488,3816,-76,16448,65,243,-148
3750932260,3728,76,16596,106,120,-164
3750933998,3320,448,16340,99,63,-216
3750935744,3456,1592,16248,59,104,-106
3750937464,3840,1852,16288,23,67,43
3750939175,3848,1176,16432,-81,-41,96
3750940889,3920,668,15984,-65,7,16
3750942604,3876,896,16360,-31,119,-5
3750944317,3836,236,16028,-33,41,-26
3750946053,3432,556,16344,-33,71,-90
3750947764,3676,424,16448,-37,64,-55
3750950618,4624,796,15944,-28,107,-148
3750952372,3548,972,16444,-25,159,-360
3750954086,2616,1548,16656,-22,38,-106
3750955807,3024,1148,16452,-63,-61,11
3750957609,4216,1572,16348,-133,-10,45
3750959312,4060,284,16460,-144,77,6
3750961008,4224,1044,15856,-70,-45,-82
3750962702,3920,1052,16312,-106,-53,-35
3750964393,3840,876,16196,-136,139,-4
3750966085,4056,616,16208,-153,105,56
3750967835,3732,264,15820,-128,-16,-41
3750969539,3940,680,16288,-116,58,-182
3750971251,4336,348,16504,-73,148,-48
3750972959,3968,264,16192,-47,98,-208
3750974666,3808,544,16220,-50,71,-293
3750976378,3864,1404,16304,-90,113,-178
3750978111,3820,1032,16264,-103,-5,89
3750979823,3852,536,16156,-116,-68,77
3750981530,4004,848,16032,-148,71,-105
3750983238,4388,820,15680,-70,125,-23
3750984943,4892,1104,15516,-157,112,47
3750986650,4816,560,16116,-184,158,87
3750988379,4140,-272,16168,-74,299,-48
3750990088,3656,-640,16412,30,155,-157
3750991795,3744,-268,16384,71,133,-254
3750993504,3816,1108,16484,34,200,-247
3750995211,4104,1256,16084,17,164,14
3750996917,4144,1060,15996,-88,126,-75
3750998646,3912,888,16200,-111,131,-114
3751000356,3796,1168,16240,-38,171,-113
3751002072,3608,944,16136,-119,77,76
3751003785,3696,508,16248,-126,94,126
3751005497,3852,140,16276,-98,213,3
3751007210,4532,-48,15976,27,128,-72
3751008992,4412,404,16120,21,268,-179
3751010698,4016,408,16420,24,327,-222
3751012398,2992,1184,16380,93,240,-207
3751014097,3136,996,16404,-19,34,-11
3751015791,3316,896,16168,-20,68,-26
3751017485,3796,936,16548,-1,135,31
3751019175,4012,292,16260,-27,-15,68
3751020863,3724,1052,16276,-100,116,-118
3751022546,3756,1548,16340,-92,153,-12
3751024227,3916,544,16340,-61,32,52
3751025904,3824,-840,16148,-23,86,116
3751027580,3672,-1744,16196,99,150,-96
3751029314,3984,0,16504,223,182,-436
3751031016,3492,1504,16060,137,13,-164
3751032727,3884,2360,15840,72,151,-107
3751034437,4324,2628,16328,-62,174,16
3751036148,3564,1448,16436,-116,-15,100
3751037854,2888,-296,16468,-67,-2,51
3751039581,3320,-40,16504,5,73,-33
3751041299,3564,968,16380,-34,-26,-20
3751043017,4420,284,15892,-72,15,157
3751044727,4936,56,16068,-46,134,50
3751046435,4328,-216,16152,64,97,-260
3751048153,3156,1396,16016,89,63,-472
3751049896,3076,1940,16428,-61,151,-30
3751051609,3324,1724,16408,-64,79,57
3751053320,4272,544,16196,-114,-23,133
3751055027,4148,732,16840,-107,109,-312
3751056735,3584,1288,16480,-144,-9,-86
3751058442,3352,556,16188,-50,-33,-28
3751060175,3912,1736,15844,-173,29,85
3751061889,3760,48,16068,-166,91,69
3751063598,4048,164,15936,-69,39,-84
3751065304,4720,984,16068,-136,18,-155
3751067011,4412,576,15972,-145,191,-80
3751068716,3808,-268,16204,-53,166,-164
3751070447,3532,-196,16356,4,83,-337
3751072156,3468,1140,16484,-64,47,-248
3751073864,3304,760,16524,-43,70,-37
3751075570,3892,1096,16428,-30,-1,-80
3751077337,4212,1224,15844,-144,-76,-6
3751079246,4552,1384,15636,-140,104,-26
3751081219,5044,600,15808,-228,139,189
3751082968,4452,-88,15980,-162,185,-41
3751084648,4268,-292,16000,-135,256,-31
3751086314,3592,-824,16144,83,267,-192
3751087975,3404,488,16504,53,143,-207
3751089660,3528,564,16848,39,109,-176
3751091371,3968,1524,16296,43,178,-176
3751093067,4232,1224,16252,-85,67,-10
3751094778,4332,1476,16064,-122,141,-131
3751096488,4136,1520,16052,-166,212,-26
3751098196,3508,416,15900,-98,143,39
3751099905,3564,328,16224,-139,94,48
3751101671,3908,-244,16356,-12,209,-30
3751103370,4252,124,16336,59,241,-68
3751105066,4472,-52,16420,47,222,-129
3751106762,3924,1416,16480,33,294,-301
3751108464,3236,1348,16540,11,271,-135
3751110168,3040,1072,16552,20,117,-84
3751111934,3228,1268,16380,-92,34,34
3751113639,3572,192,16496,-30,112,69
3751115348,4008,464,16100,-7,77,-18
3751117058,3804,220,16348,-63,-21,-50
3751118777,3844,944,16392,-49,173,-113
3751120499,3628,796,16524,-35,167,40
3751123073,4084,-360,16164,53,110,-113
3751124793,3968,96,16208,121,250,-264
3751126504,4208,808,16224,154,254,-255
3751128216,3340,1064,16196,55,73,-101
3751129932,3464,1696,16112,-5,125,-63
3751131661,3908,1532,16172,-33,70,76
3751133460,3824,1096,16240,-34,-6,124
3751135199,3544,368,16704,-64,-2,-8
3751136986,3916,552,16128,10,83,16
3751138773,3820,304,16204,5,40,-52
3751140512,3852,492,16364,-35,39,-61
3751142220,4300,476,16016,-13,142,-124
3751143998,4080,1104,15872,9,124,-166
3751145714,3640,984,16356,4,96,-263
3751147403,3252,1504,16652,-23,88,-229
3751149085,3384,856,16316,-41,-5,11
3751150764,4048,1636,16400,-96,66,-79
3751152446,3828,1352,16872,-181,1,13
3751154180,4016,904,16484,-100,-26,-31
3751155881,4192,860,15940,-140,-45,88
3751157592,4084,332,15980,-142,134,-31
3751159301,3732,320,16352,-124,151,-86
3751161009,4008,732,15996,-65,-21,-116
3751162718,4388,904,15976,-140,65,-100
3751164427,4288,544,16088,-172,150,-53
3751166134,4160,132,16292,-25,177,-249
3751167841,3648,864,16500,-38,30,-253
3751169549,3896,1524,16428,-75,141,-192
3751171255,3592,1756,16524,-95,91,-53
3751172961,3732,476,16108,-114,-65,102
3751174694,4100,596,15728,-113,53,-97
3751176404,4240,676,15952,-112,82,-58
3751178110,4832,1400,15580,-122,85,-20
3751179819,4732,340,15852,-182,163,154
3751181528,4004,-864,16320,-50,292,-113
3751183235,3712,-524,16220,35,227,-221
3751184966,3776,28,16488,88,133,-262
3751186675,3748,1240,16196,0,237,-149
3751188382,3764,1328,16376,4,190,-20
3751190088,4520,1264,15924,-32,102,-112
3751191794,4492,1048,16156,-134,143,-28
3751193501,3704,980,16096,-46,220,-151
3751195230,3208,1084,16124,-82,96,-42
3751196940,3428,248,16360,-91,82,63
3751198649,3696,276,16260,-45,210,54
3751200359,3912,-176,16456,-9,123,-1
3751202069,4968,780,16080,4,169,-147
3751203775,4224,352,16404,16,340,-90
3751205485,3164,584,16652,85,226,-265
3751207183,2856,984,16640,20,118,-175
3751208874,3024,1104,16404,-47,135,-29
3751210567,3668,924,16448,-36,96,126
3751212258,3952,284,16580,-35,8,138
3751213949,4260,188,16248,-43,66,-145
3751215702,3496,836,16280,-28,144,-132
3751217407,3756,1576,16568,-99,121,0
3751219118,3792,912,16288,-121,33,158
3751220825,3836,-808,15900,48,166,46
3751222532,3888,-828,16428,219,136,-334
3751224242,4112,188,16604,196,111,-387
3751225978,3564,2056,16132,65,158,-109
3751227686,3560,1960,16320,1,128,100
3751229392,3776,1760,16596,-100,24,-41
3751231099,3472,1236,16456,-134,-5,9
3751232807,3268,252,16348,4,93,6
3751234517,3432,528,16484,-74,-27,11
3751236249,3408,264,16448,-90,-86,26
3751237961,4208,372,16056,-45,103,-45
3751239668,4988,-308,16252,28,144,-47
3751241373,3640,704,16236,69,59,-438
3751243080,3200,1424,16072,30,73,-360
3751244787,3128,2276,16572,1,149,-159
3751246516,3700,1472,16540,-141,-59,254
3751248225,3988,372,16476,-135,-15,159
3751249932,4040,916,16860,-136,108,-172
3751251637,3908,196,16116,-76,-119,115
3751253344,3624,936,15960,-51,-7,-148
3751255057,4016,1244,15764,-133,95,-15
3751256788,3948,488,15928,-79,142,-48
3751258501,4484,1144,15796,-133,-29,-88
3751260212,4628,788,16192,-189,13,-109
3751261916,4424,1000,15980,-147,219,-197
3751263621,3712,-436,16204,-59,113,-99
3751265330,3596,836,16408,-55,64,-346
3751267058,3528,900,16748,-96,74,-142
3751268765,3360,712,16728,25,35,-104
3751270471,3912,1328,16256,-105,-121,22
3751272179,4212,1072,15732,-132,-62,-2
3751273882,5024,1932,15428,-171,127,42
3751275589,5120,224,15652,-213,188,210
3751277317,3972,-524,15904,-156,251,-44
3751279024,3852,-868,16196,-67,274,-86
3751280732,3604,-352,16652,104,182,-325
3751282439,3724,532,16588,-28,114,-59
3751284147,3828,264,16236,19,146,-129
3751285852,4524,2108,15828,16,178,-153
3751287579,4404,812,16028,-54,134,-87
3751289286,3692,1828,16288,-121,195,-114
3751290992,3408,1192,16356,-138,153,73
3751292697,3264,732,16144,-98,97,-20
3751295545,4216,-608,15980,-62,145,71
3751297299,5036,272,16132,25,289,-63
3751299088,4692,-180,16440,51,262,-112
3751300790,3484,756,16512,84,301,-355
3751302485,2812,1228,16664,38,221,-124
3751304181,2876,1312,16428,36,142,-73
3751305875,3484,1632,16228,-123,38,58
3751307568,3908,312,16504,-93,142,46
3751309318,4024,592,16340,-62,28,-82
3751311023,3648,424,16296,-84,-5,-72
3751312733,3288,988,16592,-48,155,-117
3751314442,3944,108,16392,-30,-25,164
3751316149,4116,-408,16096,45,-3,49
3751317858,4396,-656,16004,120,274,-167
3751319586,4428,916,16084,193,240,-399
3751321294,3464,1972,16400,19,160,-27
3751323000,2836,1520,16484,-1,98,31
3751324707,3232,1508,17000,-71,114,19
3751326414,3508,420,16352,-39,-58,41
3751328123,3604,380,16252,-24,16,-33
3751329840,3860,548,16548,-28,45,10
3751331558,4024,472,16428,-39,-21,-34
3751333302,3836,448,16200,-26,19,-42
3751335033,4180,268,15968,13,78,-29
3751336743,4048,1036,15992,43,135,-273
3751338451,3884,1312,16068,19,116,-188
3751340170,3220,1676,16284,-37,135,-117
3751341881,3152,1116,16600,-40,66,24
3751343575,4000,896,16508,-58,24,-83
3751345267,3708,1152,16848,-205,16,44
3751346985,3732,612,16084,-152,42,68
3751348704,3640,776,16052,-70,-49,-26
3751350472,3980,736,16076,-115,5,-14
3751352184,3856,688,16164,-139,159,-64
3751353905,4044,636,16200,-118,53,-57
3751355614,4192,744,15888,-106,-38,-99
3751357321,4332,332,16144,-187,122,-78
3751359027,4428,44,16072,-101,190,-103
3751360761,3856,776,16340,-7,122,-269
3751362469,3624,960,16176,-51,65,-233
3751364178,3872,1616,16540,-106,95,-24
3751365886,3868,896,16636,-140,-1,114
3751367592,3896,640,16124,-123,-21,-43
3751369297,4312,492,15956,-139,85,2
3751371028,4500,580,15568,-73,87,-43
3751372737,4632,880,15852,-147,81,25
3751374447,4652,-72,15992,-110,263,25
3751376156,3956,-492,16340,23,210,-150
3751377865,3872,-340,16524,34,158,-212
3751379572,3828,824,16588,12,207,-340
3751381302,3764,1288,16468,-11,183,-13
3751383010,3976,1024,16112,-18,142,0
3751384717,4332,1380,16084,-71,95,-158
3751386425,4256,988,16044,-63,197,-89
3751388232,3652,952,16052,-104,129,21
3751390075,3496,384,16088,-94,108,33
3751391874,3528,444,16540,-73,195,-28
3751393595,3992,-16,16352,-7,122,97
3751395293,4452,240,16356,28,157,-152
3751396982,4400,688,16132,-9,225,-182
3751398663,3920,724,16032,59,297,-189
3751400343,3256,916,16340,0,163,-120
3751402087,3056,832,16472,-70,114,-135
3751403789,3224,1064,16416,-50,150,-112
3751405501,3724,488,16348,-35,-2,136
3751407211,4212,336,16256,-9,47,-83
3751408920,4012,416,16400,-48,137,-107
3751410627,3480,792,16500,44,143,-121
3751412358,3808,1560,16624,-74,74,82
3751414065,4164,48,15948,-5,168,67
3751415773,4016,-360,16096,95,194,-45
3751417481,3764,-896,16524,142,66,-211
3751419186,3236,960,16576,98,105,-306
3751420891,3456,1640,16172,59,173,-114
3751422687,3920,2008,16144,44,35,54
3751424484,4092,1540,16364,-129,29,24
3751426246,3884,820,16284,-75,113,-52
3751427975,3396,564,16512,-65,-10,8
3751429732,3360,160,16316,-60,-42,25
3751431449,3404,544,16484,-71,94,-76
3751433243,4128,236,15980,62,34,-47
3751434945,4952,484,15920,22,103,-161
3751436641,4460,688,16128,1,153,-321
3751438336,3300,2104,16340,6,186,-292
3751440059,2984,1652,16712,-47,-36,126
3751441780,3528,1064,16456,-100,-73,182
3751443564,3972,488,16448,-135,114,-63
3751445367,4188,492,16308,-71,-87,-22
3751447106,4284,772,15744,-112,-52,-36
3751448805,3916,704,16000,-165,64,-32
3751450511,4124,836,15976,-100,203,-134
3751452218,3760,1056,16076,-117,-15,-92
3751453944,4292,984,16220,-157,93,-167
3751455660,4348,1248,16296,-160,183,-153
3751457366,4032,4,16024,-89,39,25
3751459059,3620,-184,16224,-35,89,-295
3751460754,3816,504,16448,-35,138,-290
3751462445,3724,1312,16528,9,65,-135
3751464214,3876,1124,16152,-110,-101,143
3751465922,4336,772,15696,-146,101,-40
3751468509,4628,1568,15644,-107,142,-73
3751470230,4780,928,15892,-208,133,46
3751471940,3964,-404,16240,-210,222,134
3751473654,3792,-1304,16352,-80,232,32
3751475370,3648,-536,16696,71,146,-295
3751477072,4048,76,16232,70,180,-221
3751478763,4112,904,16260,93,252,-312
3751480453,4624,1964,16020,22,152,-64
3751482141,4168,1376,16040,-53,160,-117
3751483828,3384,1220,16448,-113,164,-10
3751485521,3356,1120,16048,-98,101,-15
3751487236,3256,1180,16476,-169,65,130
3751488955,3708,-504,16220,-103,108,204
3751490667,4332,-648,15996,-11,159,39
3751492375,5016,-292,15924,50,196,-195
3751494083,4176,344,16284,76,338,-297
3751495825,2928,680,16708,76,216,-148
3751497540,2980,824,16336,40,141,-195
3751499248,3196,1872,16132,-26,79,-48
3751500955,4236,1084,15996,-33,174,84
3751502662,4212,1068,16564,-45,168,-38
3751504371,3772,656,16480,-105,-6,-52
3751506101,3192,920,16516,-71,115,-41
3751507809,3720,56,16316,-56,32,130
3751509517,3936,-232,16244,-3,38,75
3751511226,4144,-828,16000,99,152,-92
3751512933,4328,-168,16096,233,228,-332
3751514641,3944,968,16320,196,127,-377
3751516372,3592,1968,16448,24,141,-103
3751518079,3840,2428,16508,-58,205,11
3751519785,3292,420,16436,-107,-46,162
3751521492,3408,184,16376,-55,-51,-33
3751523198,3440,400,16752,-71,-12,51
3751524906,3924,328,16400,16,65,-65
3751526636,4036,780,16096,-46,10,-33
3751528343,4448,292,16068,-14,44,-34
3751530057,4172,744,15636,59,173,-159
3751531774,3476,956,15840,67,99,-273
3751533482,3460,1732,16136,19,92,-300
3751535189,3308,1824,16728,-86,52,82
3751536925,4516,388,16444,-50,69,71
3751538635,4220,296,16748,-97,115,-195
3751540345,3604,1028,16616,-149,-39,-47
3751542053,3552,864,16176,-70,28,-45
3751543759,3956,1044,16120,-154,-39,107
3751545467,3940,568,16144,-178,16,-9
3751547196,3776,476,16012,-133,74,-58
3751548903,4488,764,15852,-77,-24,-138
3751550610,4392,900,15716,-131,40,-122
3751552318,4380,32,16068,-115,180,-93
3751554025,3776,576,16328,4,193,-256
3751555733,3712,1052,16380,-36,22,-193
3751557463,3680,1492,16664,-89,21,-213
3751559172,3820,1084,16568,-144,54,109
3751560879,3940,484,16112,-93,22,-48
3751562586,3900,768,16028,-126,-1,-60
3751564298,4484,504,15524,-131,84,18
3751566003,4520,724,15592,-108,142,36
3751567709,4740,-32,15968,-141,150,-33
3751569418,4476,-44,16064,-124,265,-143
3751571127,3896,-284,16456,35,235,-126
3751572835,3548,328,16720,43,128,-328
3751574544,3544,1072,16532,-10,113,-254
3751576253,3644,1188,16064,10,189,-49
3751577963,4216,1272,15872,-25,99,-14
3751579670,4948,1180,15640,-121,155,-118
3751581378,4380,1472,16116,-123,228,-109
3751583085,3560,428,16048,-68,139,139
3751584794,3276,-48,16452,-62,110,-56
3751586502,3364,224,16544,-70,156,-80
3751588236,3848,276,16448,49,206,-51
3751589950,4476,668,16392,-19,148,-24
3751591657,4444,496,16232,-28,303,-207
3751593363,3892,864,16304,22,349,-263
3751595072,2944,516,16304,0,98,-71
3751596780,2920,1168,16500,-86,68,-98
3751598510,3016,1092,16196,-121,112,27
3751600251,3740,192,16096,58,50,58
3751601977,4316,216,16196,-15,36,-21
3751603688,4188,692,16300,-21,205,-182
3751605405,3808,1492,16672,15,206,-169
3751607116,3768,968,16352,-50,48,151
3751608851,3788,-264,16208,-26,140,-27
3751610561,3796,-496,16480,171,186,-198
3751612271,3996,-92,16336,175,108,-254
3751613977,3276,1220,16144,49,45,-172
3751615684,3384,1580,16396,30,124,-63
3751617392,3776,2032,16268,20,116,-72
3751619120,4024,1144,16184,-99,-24,88
3751620829,3700,860,16136,-87,116,-129
3751622536,3604,520,16348,-7,40,47
3751624244,3456,428,16408,-10,8,-31
3751625953,3628,416,16368,-76,41,-9
3751627661,4284,684,16036,15,119,-106
3751629391,4532,720,15816,10,83,-16
3751631101,4188,400,16092,-4,77,-245
3751632807,2996,1808,16432,3,149,-312
3751634514,3276,1408,16344,-9,-8,107
3751636222,3704,1148,16452,-62,-23,88
3751637932,4008,812,16804,-200,32,32
3751640856,4144,784,15908,-85,-51,-29
3751642607,4132,296,15932,-121,44,-19
3751644326,4068,464,16044,-134,162,-149
3751646032,3820,760,16304,-128,108,-88
3751647736,4052,1120,15872,-88,2,-130
3751649458,4064,620,16616,-162,122,-63
3751651260,4232,556,16312,-114,187,-56
3751652963,3808,252,16124,-40,79,-188
3751654658,3808,696,16132,-70,54,-175
3751656350,3688,912,16588,-85,123,-152
3751658041,3756,844,16260,-40,-2,11
3751659733,4104,632,16120,-103,-21,-6
3751661482,4480,1148,15760,-167,138,-65
3751663187,4684,1396,15768,-161,188,-34
3751664897,4792,932,16100,-211,148,67
3751666605,4136,-768,16108,-167,173,16
3751668312,3964,-828,16404,-97,281,-143
3751670020,3644,-460,16556,72,178,-247
3751671749,3788,744,16296,90,96,-221
3751673457,4360,1144,15828,25,208,-64
3751675163,4676,1468,15704,38,251,-101
3751676869,4100,1220,16236,-55,137,-63
3751678576,3484,940,16040,-90,148,-55
3751680286,3256,1168,16288,-78,192,-102
3751682014,3288,1224,16444,-104,79,140
3751683722,3940,-168,16332,-125,28,136
3751685433,4796,-660,16080,-23,201,-57
3751687141,5120,-308,15976,61,297,-251
3751688847,4088,540,16236,71,269,-222
3751690549,3080,576,16224,34,270,-185
3751692269,2916,1028,16432,69,223,-223
3751694048,3308,1504,16468,16,16,-39
3751695863,4072,1156,16556,-52,84,72
3751697617,4236,692,16532,-54,158,-15
3751699318,3496,1252,16504,-85,28,-118
3751701016,3276,1308,16484,-128,29,27
3751702798,3884,-92,16056,-99,116,210
3751704487,3860,-1084,15896,63,79,2
3751706168,3636,-1676,16132,174,62,-156
3751707859,4384,144,16456,199,164,-391
3751709559,4244,1852,15760,96,180,-156
3751711248,4144,2176,16136,28,236,-162
3751712996,3820,2580,16584,-127,142,47
3751714699,2908,276,16420,-67,34,113
3751716411,3028,464,16884,-9,-45,-107
3751718119,3416,680,17108,-26,-106,-47
3751719828,3940,996,15988,-80,-7,167
3751721536,4712,-292,16144,2,73,20
3751723267,4428,552,16320,15,51,-256
3751724978,3860,480,16068,24,96,-151
3751726685,3168,1048,15612,104,190,-291
3751728426,3236,2384,16576,-76,10,-152
3751730189,3356,1920,16436,-93,-54,61
3751731926,5092,204,16312,-73,199,93
3751733722,3428,876,16840,-121,17,-304
3751735419,3072,552,16412,-156,-15,-11
3751737101,2972,788,16392,-47,17,-95
3751738781,4156,1424,16264,-142,-17,152
3751740465,3956,144,16056,-180,2,-21
3751742144,4496,344,15592,-97,85,-97
3751743876,4820,720,15720,-89,113,-93
3751745576,4128,780,16204,-117,84,-160
3751747287,3984,616,16276,-128,224,-147
3751748996,3428,736,16456,-53,171,-135
3751750703,3384,472,16836,-52,9,-113
3751752414,3560,980,16672,-69,-21,-169
3751754146,3992,1144,16276,-57,14,-55
3751755857,4128,1008,15868,-106,20,-3
3751757562,4628,764,15608,-191,-11,62
