Time_us,Accel_X,Accel_Y,Accel_Z,Gyro_X,Gyro_Y,Gyro_Z
3168313882,4304,756,15792,-106,40,12
3168315732,4404,896,15804,-130,79,-49
3168317457,4652,844,15960,-199,258,-6
3168319152,4320,-204,16096,-114,162,-18
3168320908,3828,-724,16480,-125,126,-52
3168322739,3540,-1120,16600,-73,195,-151
3168324472,3664,76,16520,62,192,-160
3168326244,4172,312,15860,97,96,-145
3168328057,4192,1580,15932,-61,202,-84
3168329842,4236,980,16180,-51,232,-53
3168331565,3624,1436,16224,-12,90,-81
3168333269,3476,928,16216,-149,71,-40
3168335029,3740,1084,16268,-142,197,126
3168336790,3876,320,16368,-110,152,235
3168338574,4068,-780,16136,-44,72,2
3168340300,4524,-152,16108,-15,318,-162
3168341986,3924,36,16284,83,275,-125
3168343679,3524,76,16480,90,210,-179
3168345379,2808,816,16488,-1,120,-159
3168347101,3212,1264,16184,21,176,-146
3168348790,3392,1552,16364,3,75,2
3168350479,4112,748,16284,-42,81,-46
3168352163,3712,1132,16448,-147,135,-27
3168353848,3452,912,16216,-55,75,-3
3168355539,3368,520,16788,-70,-6,39
3168357295,4044,-592,16272,-58,97,16
3168359006,3868,-1048,16080,119,213,-114
3168360723,3948,-772,16120,193,179,-170
3168362435,3812,176,15936,162,26,-225
3168364165,3908,2072,15888,44,253,-122
3168365882,3832,1828,16320,14,141,-13
3168367620,3924,1540,16492,-20,65,-22
3168369337,2996,388,16344,-98,11,11
3168371055,3384,720,16596,-16,46,-45
3168372767,3812,204,16204,-89,-68,137
3168374480,4024,-200,16144,-33,22,8
3168376251,4512,320,16200,-24,128,-90
3168378034,4124,188,15892,82,48,-179
3168379841,3348,1036,15908,32,79,-213
3168381597,3172,1308,16228,-17,147,-228
3168383362,3248,2044,16540,-46,73,-46
3168385191,4572,252,16188,-77,15,104
3168386952,3676,420,17212,-148,150,-205
3168388768,3472,184,16404,-84,-76,-20
3168390515,3492,892,16200,1,-22,-94
3168392277,3948,1424,15652,-157,-24,139
3168394002,3852,296,16180,-171,127,-12
3168395694,4124,164,15884,-128,60,-81
3168397383,4696,428,15720,-108,-3,-83
3168399073,4232,752,15940,-130,212,-174
3168400763,3964,16,16044,-74,160,-186
3168402451,3532,384,16464,-23,131,-251
3168404142,3460,616,16888,-112,41,-53
3168405828,3472,796,16760,-47,46,-147
3168407510,3788,1100,16168,-58,-37,-78
3168409267,4080,932,16048,-111,-33,40
3168410978,4372,388,15692,-137,148,2
3168412694,4712,544,15596,-127,94,7
3168414406,4628,268,15468,-100,111,10
3168416117,4372,112,15936,-146,271,-51
3168417864,3804,-600,16292,-23,260,-114
3168419602,3628,-120,16556,49,168,-191
3168421313,3040,28,16920,-83,69,-82
3168423024,3568,720,16652,34,186,-199
3168424737,4072,876,16304,-40,-4,3
3168426457,4384,768,15820,-18,31,-96
3168428172,4760,1092,15668,-94,227,-33
3168429905,4136,756,15736,-49,241,-91
3168431611,3452,420,16176,-93,125,24
3168433359,3592,76,16188,-89,218,-33
3168435175,3640,236,16364,-4,233,3
3168436985,3768,356,16360,3,152,-66
3168438738,4440,596,16308,-17,200,-119
3168440511,4228,1056,16284,-15,279,-120
3168442222,3532,392,16180,-14,139,-39
3168443923,3084,736,16256,-52,110,-128
3168445622,3380,52,15720,15,133,-85
3168447327,3408,640,16192,39,109,-133
3168449025,4128,436,16220,-14,48,36
3168450781,4220,344,16248,-9,183,-97
3168452489,3768,580,16336,-12,198,-82
3168454203,3376,944,16588,9,96,-120
3168455957,3952,1380,16376,-59,67,108
3168457781,3692,-452,16216,37,224,-16
3168459517,3744,-668,16536,76,54,-148
3168461271,3796,-296,16252,72,49,-204
3168463014,3168,596,16100,94,116,-147
3168464723,3224,1460,16600,24,64,1
3168466432,3564,1172,16176,-6,-48,10
3168468137,3692,1204,16404,-101,44,22
3168469851,3884,392,16284,17,89,-102
3168471617,3744,704,16604,-70,-4,-18
3168473316,3616,116,16152,-84,57,-40
3168474959,3616,664,16376,-23,174,-77
3168476594,3800,248,16056,-10,-8,-41
3168478226,4328,732,15700,-10,9,-109
3168479856,4176,808,16192,-79,182,-126
3168481486,2928,1332,16280,18,74,-129
3168483169,2868,932,16560,-36,-51,-28
3168484958,3676,856,16484,-69,-18,-72
3168487582,3928,392,16428,-104,24,20
3168489311,4040,204,16200,-127,-105,-28
3168491089,4136,1148,15888,-110,55,-110
3168492795,4036,352,15988,-119,190,1
3168494492,3528,944,16252,-145,74,-161
3168496189,3604,1036,15820,-186,13,-108
3168497879,4000,812,16164,-149,124,-50
3168499573,4180,0,16392,-101,111,-48
3168501325,4020,-392,16408,-94,72,-149
3168503035,3728,448,16216,-53,110,-199
3168504747,3944,732,16340,-18,87,-88
3168506457,3968,732,16208,-51,-14,-5
3168508167,3904,644,16280,-110,-16,-55
3168509878,4108,772,15740,-85,105,-13
3168511611,4412,1160,15720,-113,101,-63
3168513320,4512,1176,15840,-204,47,-7
3168515030,4492,344,16164,-212,234,-41
3168516739,4124,-744,16232,-107,253,28
3168518447,3640,-720,16456,8,177,-285
3168520158,3576,-60,16444,-13,120,-241
3168521887,4004,576,16156,82,232,-177
3168523596,4236,1276,15952,25,162,-30
3168525305,4240,956,16072,-35,134,-56
3168527011,4016,1248,16288,-79,186,-92
3168528717,3568,1224,16464,-67,125,6
3168530424,3580,484,16132,-114,93,39
3168532156,3440,480,16296,-159,144,18
3168533863,3916,-284,16180,-64,169,68
3168535572,4744,-28,15984,-10,133,-82
3168537279,4792,-152,16072,-41,190,-123
3168538985,3840,140,16416,-2,356,-213
3168540692,2864,412,16408,62,153,-101
3168542422,2932,904,16396,34,110,-193
3168544134,3176,1432,16408,-9,103,-99
3168545844,3684,768,16372,43,125,-7
3168547552,4328,892,16128,-69,61,-1
3168549260,3696,1208,16252,-146,98,-60
3168550966,3452,1324,16556,-132,123,36
3168552696,3708,-104,16380,-54,51,99
3168554406,3696,-1032,15972,23,47,-41
3168556114,3588,-1388,16084,90,159,-179
3168557825,4076,-200,16312,235,178,-241
3168559531,3808,1308,15960,127,34,-195
3168561239,3796,1884,16432,-47,228,-83
3168562968,3904,2092,16496,-23,236,-56
3168564676,3132,1104,16504,-95,-6,97
3168566385,2672,180,16676,-76,-14,-154
3168568094,3116,1096,16704,-104,47,-51
3168569799,3664,320,16224,-32,-17,73
3168571508,4808,64,15636,-52,30,45
3168573236,4828,-100,16304,11,207,-225
3168574944,4300,504,16244,62,164,-176
3168576657,3056,508,15836,55,42,-202
3168578370,3172,2072,16552,-46,117,-176
3168580082,3132,1844,16712,-85,101,-25
3168581788,4284,504,16040,3,32,112
3168583519,4000,716,17104,-147,63,-239
3168585229,3472,-24,16212,-208,-74,48
3168586936,3328,408,16308,-44,93,-125
3168588646,3656,900,15776,-143,-53,183
3168590353,3688,584,16308,-156,28,-112
3168592086,3916,692,15908,-187,34,-20
3168593819,5036,312,15548,0,109,-155
3168595529,4288,692,15620,-140,125,-96
3168597236,4004,236,16268,-103,274,-229
3168598953,3488,984,16656,-34,211,-207
3168600666,3412,368,16796,-96,20,-21
3168602383,3276,336,16796,-113,22,-114
3168604158,3868,928,16308,-29,-20,-31
3168605903,4044,912,16032,-40,-57,21
3168607613,4456,1004,15668,-154,-39,0
3168609315,5044,340,15480,-177,188,44
3168611015,4900,516,15348,-129,251,19
3168612709,4580,-608,15976,-127,185,-22
3168614400,3712,-232,16636,-17,313,-278
3168616121,3392,188,16728,17,210,-66
3168617824,3132,184,16780,26,138,-119
3168619528,3448,1140,16476,-25,53,-107
3168621239,4152,1020,16204,-15,126,-91
3168622956,4628,1396,15800,-27,103,-45
3168624632,4928,392,15748,-94,143,0
3168626277,3600,292,15736,-61,239,-104
3168627912,3272,260,15740,-35,241,-47
3168629545,3292,104,16124,-31,125,-31
3168631181,3744,376,16408,-64,139,18
3168632815,3876,140,16464,-57,208,-14
3168634449,4596,396,16368,60,254,-165
3168636164,4028,808,16556,-41,144,-77
3168637893,3532,396,16460,-43,191,-104
3168639607,3056,972,16556,-26,183,-50
3168641329,3256,440,16188,-31,101,-78
3168643050,3748,396,15856,-59,115,-4
3168644765,4248,-48,16028,12,200,-52
3168646488,4344,784,16316,23,99,-75
3168648205,3464,556,16404,-79,86,-27
3168649915,3128,572,16580,-60,181,-61
3168651631,3556,968,16572,3,98,-2
3168653354,4012,-80,16104,19,50,-32
3168655073,4280,-144,16436,27,220,-76
3168656787,4336,-340,16372,36,203,-110
3168659264,2848,1176,16244,70,24,-170
3168660967,3436,1252,16248,-17,111,-74
3168662662,3588,1772,16164,-3,107,-57
3168664380,3788,540,16252,-83,-43,72
3168666074,3972,928,16252,-32,18,-71
3168667767,4132,636,15936,-55,108,-4
3168669460,3644,564,16208,11,158,-126
3168671150,3920,660,16392,-57,59,-16
3168672840,3600,328,16376,-60,59,-11
3168674594,4232,584,15812,0,124,-109
3168676300,3952,948,16396,-17,49,-173
3168678012,2996,1128,16436,-40,56,-105
3168679719,3072,764,16368,-25,50,-21
3168681426,3980,816,16328,-35,22,-56
3168683132,3820,604,16512,-184,-4,29
3168684862,4124,328,16016,-41,29,-120
3168686677,4192,1140,16228,-29,36,-115
3168688514,3952,712,15980,-119,37,-3
3168690282,3784,996,16220,-147,174,-131
3168692047,4092,904,15996,-158,37,-53
3168693765,4052,984,15960,-165,30,-37
3168695573,4156,-152,16368,-183,113,-7
3168697282,3880,-588,16380,-23,154,-166
3168698976,3468,396,16312,-18,30,-182
3168700661,3688,612,16240,-52,18,-159
3168702344,3836,952,16544,-47,108,-67
3168704047,3888,664,16144,-110,-31,-19
3168705789,4256,940,15768,-161,49,-69
3168707501,4456,1216,15748,-209,148,-18
3168709219,4808,720,15668,-145,206,-18
3168710931,4300,180,15984,-181,133,34
3168712641,4128,-776,16296,-144,175,-7
3168714360,3540,-616,16632,5,274,-150
3168716110,3660,-208,16560,51,105,-197
3168717828,4004,1264,16212,17,130,-128
3168719540,4352,1268,15784,-37,240,-7
3168721250,4296,888,16024,18,227,-99
3168722958,3604,1032,16272,-63,96,-87
3168724675,3280,984,16652,-89,83,-87
3168726418,3560,828,16352,-89,173,35
3168728137,3528,248,16520,-125,66,104
3168729848,4228,-300,16308,-81,145,-67
3168731558,4532,88,16252,-69,213,-65
3168733268,4496,-20,16168,49,296,-201
3168734996,3212,440,16680,-11,203,-116
3168736723,2804,484,16592,41,208,-167
3168738435,2904,888,16308,52,152,-134
3168740146,3432,1032,16324,2,33,-46
3168741854,4204,832,16560,-45,102,-12
3168743562,4296,736,16532,-43,162,18
3168745280,3648,956,16128,-51,53,-65
3168747022,3484,1080,16492,-153,68,46
3168748735,3800,88,16128,-11,174,33
3168750443,3612,-608,16180,41,92,38
3168752153,3620,-1740,16228,151,82,-232
3168753890,4088,76,16492,105,196,-264
3168755723,3764,1556,15892,102,113,-101
3168757728,3656,2056,16764,-8,116,-139
3168759556,3988,2432,16304,-98,114,15
3168761282,3320,736,16108,-38,118,73
3168762955,3212,528,16220,-54,-31,-31
3168764631,3640,704,16392,-73,-34,2
3168766303,3724,868,16204,-81,60,80
3168768062,4820,-268,15960,-6,102,55
3168769744,4608,-276,16172,26,77,-217
3168771432,3920,36,15928,34,74,-235
3168773119,2992,1224,15972,114,172,-252
3168774814,3208,2332,16580,-74,27,-99
3168776504,3492,1908,16504,-131,-51,15
3168778242,4412,160,16292,-118,193,-33
3168779952,3676,308,16892,-155,-26,-25
3168781702,3444,440,16404,-76,-58,-170
3168783414,3100,1488,16712,-118,-26,-104
3168785129,4196,748,15920,-87,143,112
3168786842,3844,500,15816,-149,-33,11
3168788559,4864,688,15596,-98,42,-145
3168790277,4884,1068,15904,-112,168,-114
3168791985,4240,396,16116,-130,172,-3
3168793705,3544,0,16208,-79,163,-248
3168795407,3168,688,16492,-90,182,-241
3168797106,3524,68,16424,-6,59,-88
3168798808,3348,728,16744,-71,-50,-108
3168800538,3764,844,15996,-113,-7,-79
3168802254,4072,1328,15964,-111,29,-42
3168803969,4768,764,15308,-146,3,78
3168805768,5112,760,15712,-215,240,-29
3168807472,4816,184,15792,-217,320,4
3168809195,3984,-356,16220,-1,210,-121
3168810891,3408,-432,16544,-17,137,-161
3168812586,3332,336,16836,-9,269,-95
3168814293,3236,596,16640,35,238,-96
3168815996,3868,1112,16076,3,-6,-27
3168817730,4672,1052,16132,-78,149,-85
3168819501,4436,884,16048,-25,176,-47
3168821209,4268,492,15848,-55,165,-20
3168822931,3316,584,15724,-104,175,-115
3168824648,3516,364,16156,-74,241,-36
3168826360,3436,424,16632,-30,158,-32
3168828108,4208,-288,16168,-48,51,48
3168829887,4472,364,16492,-2,348,-249
3168832301,3948,928,16660,25,227,-102
3168833999,3176,952,16524,-4,97,-88
3168835684,3272,600,16476,-71,158,-45
3168837368,3332,660,16056,-14,192,-22
3168839049,3680,436,16128,-10,27,28
3168840790,4280,152,15936,1,126,-138
3168842481,3620,1028,16312,4,147,-90
3168844178,3248,888,16504,-5,62,2
3168845871,3552,612,16612,-32,64,-85
3168847562,4192,-48,16208,-2,165,69
3168849255,4092,-552,15972,82,196,-79
3168851005,4236,356,16392,34,62,-76
3168852709,3744,60,16152,30,184,-191
3168854421,2964,1172,16328,68,129,-81
3168856131,3292,1028,16372,42,37,-75
3168857840,3668,1324,16128,-34,-31,-53
3168859548,3804,824,16428,-32,114,18
3168861279,4104,852,16248,19,90,-23
3168862989,4068,512,16272,-60,8,17
3168864708,3568,56,16456,-30,166,-123
3168866425,3636,764,16520,4,69,-38
3168868138,3868,544,16084,-2,-11,0
3168869855,4288,940,15740,-34,64,-142
3168871636,3848,644,16436,-47,169,-154
3168873338,3016,1184,16584,-34,-29,-119
3168875049,3160,648,16388,-93,-88,11
3168876757,4056,804,16120,-60,176,-102
3168878455,3852,716,16412,-124,38,8
3168880150,3708,376,16392,-85,-109,-56
3168881907,4152,1216,16124,-108,2,-47
3168883617,3896,560,16172,-110,188,-10
3168885342,3856,964,16288,-153,17,-88
3168887064,3900,892,16068,-182,-46,-52
3168888780,4104,776,15912,-162,161,-45
3168890489,4240,-276,16348,-142,120,-33
3168892204,4100,-600,16364,-89,82,-123
3168893917,3628,-148,16120,-5,111,-273
3168895636,3740,984,16328,-28,123,-133
3168897355,3940,1328,16156,-100,-21,-26
3168899065,3736,1080,16180,-154,-41,76
3168900772,4016,236,15936,-93,156,-140
3168902509,4276,1116,15892,-142,9,15
3168904297,4732,884,15808,-136,120,-32
3168906019,4620,884,16080,-186,214,42
3168907735,4212,-988,16184,-90,228,-34
3168909446,3796,-344,16348,-13,132,-145
3168911154,3824,-472,16432,-7,161,-173
3168912886,3884,672,16368,76,239,-178
3168914603,3952,1120,16060,11,112,-100
3168916324,4212,900,15936,-47,158,-52
3168918040,4116,884,16084,-43,244,-107
3168919749,3688,784,16372,-98,121,-22
3168921457,3404,1136,16372,-120,66,-34
3168923190,3680,-104,16304,-101,172,91
3168924918,3920,-324,16368,-23,180,-35
3168926648,4420,-56,16340,-52,118,-24
3168928357,4488,188,16328,22,319,-194
3168930066,3956,568,16344,43,354,-136
3168931776,3256,324,16544,55,199,-161
3168933488,2960,988,16292,-20,101,-98
3168935214,3304,780,16380,42,184,-42
3168936990,3624,720,16344,44,131,11
3168938777,4088,720,16204,-45,18,-31
3168940523,4056,424,16272,-42,133,-51
3168942243,3676,1240,16272,-109,101,18
3168944097,3632,300,16596,-97,81,20
3168945830,3680,396,16072,-35,69,2
3168947572,3744,-1960,16036,137,138,-112
3168949313,3932,144,16688,150,97,-254
3168951016,3764,304,16524,71,72,-178
3168952689,3728,2284,15912,120,212,-109
3168954367,4180,2016,16396,-43,125,-3
3168956071,3984,1776,16508,-91,60,-14
3168957766,3144,680,16520,-118,88,39
3168959502,3188,332,16360,2,4,-14
3168961250,3324,308,16500,-70,-42,-21
3168962965,3668,348,16272,-76,16,19
3168964684,4864,-200,15956,16,130,-16
3168966446,4516,280,16324,21,82,-226
3168968222,3396,760,15892,34,137,-326
3168969953,2984,1760,16120,15,174,-264
3168971648,3260,1292,16364,-43,4,-44
3168973331,3968,988,16360,-108,-6,57
3168975044,4424,208,16280,-131,183,-5
3168976729,3732,876,16588,-125,-65,-29
3168978408,3664,420,16032,-81,-54,-106
3168980090,3952,1188,15736,-171,111,108
3168981841,4108,516,16008,-148,149,50
3168983633,3780,452,15912,-108,-26,-17
3168985392,4592,760,15756,-143,104,-159
3168987093,4480,580,15916,-110,160,-77
3168988785,4352,148,16056,-106,157,-100
3168990469,3512,252,16336,-72,144,-249
3168992179,3484,336,16528,-57,146,-190
3168993876,3420,856,16796,-56,83,-161
3168995641,3588,688,16496,-65,-114,-12
3168997358,3840,1100,15952,-125,31,-37
3168999091,4596,732,15300,-92,56,-20
3169000814,4984,1072,15548,-118,57,-21
3169002529,5180,528,15572,-248,202,73
3169005074,3908,-500,16076,-45,256,-55
3169006876,3556,-1036,16428,3,168,-129
3169008579,3476,-176,16580,2,201,-213
3169010273,3336,728,16732,110,203,-187
3169011963,4052,1392,16408,16,-14,-4
3169013697,4500,1232,16088,-54,51,-44
3169015394,4616,1172,16056,-86,213,-46
3169017147,3916,984,15984,-101,144,-72
3169018850,3428,640,15932,-128,74,2
3169020564,3260,60,16220,-113,243,-33
3169022275,3476,-76,16500,-50,102,56
3169023985,4352,-64,16124,22,121,-89
3169025744,4760,-48,16080,-5,267,-138
3169027539,4236,604,16436,68,376,-222
3169029253,3072,1284,16452,1,116,-25
3169030953,3076,892,16396,-51,117,-70
3169032646,3288,816,16384,-59,196,-23
3169034358,3308,596,16492,-23,87,-2
3169036075,4228,136,15932,-36,13,-45
3169037845,4292,380,16192,-65,93,-103
3169039553,3444,328,16340,-32,110,17
3169041276,3088,604,16932,-34,64,-57
3169042995,4068,-488,16112,-22,74,25
3169044705,4104,-484,16112,81,248,-153
3169046425,4200,-56,16160,114,105,-128
3169048202,4044,580,16428,72,137,-150
3169049907,3028,964,16316,52,179,-108
3169051608,3156,1544,16416,54,111,-90
3169053304,3660,1492,16444,-76,-15,47
3169054998,3884,696,16252,-114,67,89
3169056700,3716,220,16212,-32,82,13
3169058457,3668,516,16416,-36,-30,-20
3169060165,3896,8,16328,-17,79,-136
3169061889,3884,472,16376,-14,127,-9
3169063603,4148,244,15988,-9,71,-50
3169065313,4096,1204,15968,-35,32,-153
3169067031,3768,620,16128,-24,179,-191
3169068804,3020,1340,16608,-12,14,-102
3169070506,3364,640,16404,-74,-85,12
3169072247,4088,980,16428,-105,148,-114
3169074060,3776,688,16496,-156,11,22
3169075834,3796,1040,16108,-94,-106,-26
3169077590,4100,960,15880,-135,-42,67
3169079500,3784,600,16080,-96,177,-9
3169081274,3776,432,16168,-109,11,-134
3169083018,4160,712,15728,-138,-33,-66
3169084746,4364,432,15812,-134,133,-67
3169086476,4212,-84,16468,-133,144,-71
3169088228,3880,-68,16208,-28,83,-267
3169090002,3592,784,16260,-68,118,-116
3169091806,3708,1348,16552,-44,61,-119
3169093598,3780,1368,16372,-143,-44,26
3169095380,4028,316,15904,-111,73,-23
3169097108,4280,836,15724,-101,112,-11
3169098850,4676,996,15556,-142,61,-19
3169100578,4672,996,15876,-190,92,37
3169102256,4560,-336,16116,-152,303,51
3169103956,3724,-956,16340,21,213,-144
3169105671,3516,-596,16624,18,145,-241
3169107341,3740,380,16604,37,148,-208
3169109063,3844,1344,16316,50,141,-78
3169110795,4248,732,16088,-44,81,-20
3169112462,4416,836,16040,-69,159,-121
3169114113,4236,860,16228,-96,210,-57
3169115772,3592,900,16328,-90,114,-63
3169117433,3440,848,16256,-145,78,21
3169119087,3452,-40,16228,-95,208,13
3169120786,3908,-200,16036,16,140,-18
3169122457,4220,-172,16224,8,129,-87
3169124111,4800,684,16392,-12,256,-155
3169125786,3644,440,16436,24,279,-62
3169127452,3000,180,16372,70,161,-106
3169129142,2776,776,16588,-25,58,-150
3169130948,3356,952,16264,-6,194,-34
3169132737,4056,480,16288,2,93,57
3169134483,4116,156,16468,-35,45,-27
3169136225,4236,304,16180,-35,101,-152
3169138003,3296,964,16404,-59,90,-17
3169139717,3628,732,16820,-61,123,-116
3169141436,3744,912,16152,-54,56,34
3169143188,3520,-1092,15976,108,163,-56
3169144915,4144,-428,16384,186,138,-243
3169146631,3356,932,16512,64,58,-213
3169148362,3416,2032,15868,47,154,-114
3169150083,3824,1856,16396,-5,105,65
3169151852,3788,1288,16564,-104,32,15
3169153603,3136,236,16384,-92,52,-68
3169155325,3048,360,16264,-25,73,-62
3169157061,3632,528,16360,-60,2,19
3169158790,3804,-72,16300,-70,4,1
3169160686,4740,456,16280,-20,138,-73
3169162432,4768,-144,16080,21,119,-109
3169164166,3676,908,16144,85,120,-354
3169165863,3140,1600,16416,-67,121,-127
3169167520,3036,1692,16492,-8,104,-123
3169169164,3632,892,16424,-92,-21,123
3169170808,4172,712,16576,-145,106,-116
3169172447,3984,924,16812,-185,42,-49
3169174117,4132,32,16172,-47,-30,0
3169175800,3808,816,15828,-98,11,-7
3169178403,3912,808,16012,-125,219,-58
3169180168,3916,584,15868,-91,4,-119
3169181867,4500,800,16160,-203,46,-86
3169183654,4496,644,15904,-147,231,-143
3169185355,4028,152,16220,-105,155,-70
3169187049,3472,-140,16516,-5,83,-258
3169188746,3488,744,16732,-120,115,-113
3169190441,3500,584,16424,-52,96,-68
3169192140,3612,1056,16468,-45,-109,-13
3169193896,4028,644,15992,-168,-35,-23
3169195604,4868,1540,15560,-153,103,-8
3169197318,5280,1496,15164,-204,133,118
3169199030,4864,-232,15636,-206,227,9
3169200750,3984,-816,16076,-95,306,-55
3169202474,3292,-804,16364,98,194,-214
3169204191,3356,-160,16800,94,127,-220
3169205904,3588,544,16760,22,175,-168
3169207613,4480,1956,15932,33,138,-66
3169209322,4660,1724,16208,-73,106,48
3169211027,4168,752,15924,-69,131,-131
3169212737,3504,936,16224,-107,150,-57
3169214448,3372,832,16040,-85,125,-26
3169216159,3416,612,16436,-131,82,71
3169217866,3592,-628,16284,-86,159,54
3169219570,4976,-52,16044,46,186,-84
3169221280,5168,-88,16152,30,243,-102
3169222990,3864,500,16480,61,304,-209
3169224732,2612,824,16520,55,241,-162
3169226441,2728,1460,16404,6,29,-49
3169228156,3524,1316,16328,-53,40,16
3169229866,3728,800,16392,-104,209,51
3169231574,4252,176,16320,-42,86,-122
3169233283,3856,772,16448,-86,-3,-61
3169235017,3448,368,15992,-65,81,-76
3169236726,3516,460,16532,-41,105,42
3169238435,3996,-608,16112,78,88,-58
3169240145,3968,-756,15964,123,54,-79
3169241855,4332,64,16188,155,249,-286
3169243562,3940,1288,16084,69,158,-118
3169245292,2896,1688,16468,3,90,-42
3169246999,3180,1564,16128,-47,140,14
3169248709,3128,1000,16500,-67,28,11
3169250416,3836,220,16112,-4,-59,55
3169252125,3976,84,16312,-26,-16,-33
3169253837,3856,392,16328,-61,122,-14
3169255637,3772,356,16384,1,89,-143
3169257425,4152,276,16124,-29,14,-9
3169259175,4220,200,15840,19,165,-182
3169260891,3756,1156,15984,0,92,-134
3169262601,3660,1476,16444,4,71,-222
3169264348,3412,824,16196,-56,88,-17
3169266120,3636,376,16728,-19,80,-54
3169267845,3912,1108,16804,-150,73,-47
3169269564,3652,572,16392,-157,-34,66
3169271278,3876,668,16124,-34,38,-47
3169272994,4136,732,15856,-88,2,-5
3169274713,3932,316,16144,-123,70,-45
3169276452,3936,820,16156,-138,141,-129
3169278167,4068,588,16024,-107,21,-90
3169279880,4088,740,16128,-145,28,-96
3169281592,4228,-272,16232,-145,153,-134
3169283303,3488,452,16348,3,142,-239
3169285015,3568,584,16280,-37,34,-160
3169286750,3748,1224,16300,-68,20,-144
3169288463,3960,1136,16116,-128,93,77
3169290177,3904,424,15840,-102,25,15
3169291885,4112,552,16056,-122,-30,10
3169293594,4612,480,15828,-141,117,-30
3169295302,4504,428,15976,-100,207,3
3169297030,4484,320,15964,-119,192,-12
3169298834,4060,-600,16324,-69,172,-77
3169300659,3660,-288,16544,4,255,-174
3169302426,3692,68,16308,50,122,-239
3169304159,3916,1380,16204,-54,94,-40
3169305882,4068,892,15980,-45,169,-22
3169307687,4372,1160,16056,-45,178,-86
3169309399,4068,508,16272,-102,92,-73
3169311111,3540,876,16192,-119,184,-23
3169312813,3624,640,15980,-101,238,18
3169314510,3692,432,16248,-63,141,12
3169316205,4040,104,16180,-83,143,39
3169317902,4188,-164,16296,-21,235,-33
3169319608,4280,460,16356,38,238,-176
3169321318,3540,468,16460,-1,136,-127
3169323027,3024,724,16388,26,222,-142
3169324738,3100,736,16404,8,175,-95
3169326449,3232,652,16444,-9,42,-72
3169328189,4008,684,16480,-88,84,76
3169329901,4176,44,16440,-27,142,20
3169331610,3996,516,16144,-4,136,-146
3169333319,3152,460,16496,-94,4,-49
3169335027,3784,1184,16592,-46,232,8
3169336734,3912,484,16276,-8,163,64
3169338469,3876,-668,15976,107,80,-88
3169340181,4080,-680,16252,85,176,-213
3169341888,3836,16,16400,137,218,-231
3169343598,3200,1316,16116,103,25,-161
3169345308,3496,1872,16456,-25,17,1
3169347016,3940,1448,16632,-66,149,-28
3169348726,3812,1088,16372,-79,91,52
3169351255,3472,552,16524,-104,6,-69
3169352974,3496,-76,16320,-36,129,-29
3169354687,3524,-156,16432,17,93,-84
3169356398,4040,488,16120,-26,-42,-48
3169358106,4512,312,15936,51,200,-222
3169359817,4168,1160,15848,86,191,-235
3169361515,3196,1364,16300,-8,37,-198
3169363205,2976,1624,16544,-101,1,-40
3169364896,3776,592,16312,-47,66,42
3169366588,4284,616,16436,-94,68,69
3169368278,4000,324,16516,-134,-79,-80
3169369970,4232,560,15752,-69,61,-32
3169371671,4028,944,15924,-28,119,-63
3169373378,3788,536,16120,-153,81,7
3169375085,3628,960,16200,-164,91,-192
3169376793,3792,1272,15904,-164,48,-48
3169378501,4080,476,16096,-123,41,-121
3169380239,4084,-84,16400,-169,60,-26
3169381953,3572,-328,16272,13,225,-280
3169383660,3524,412,16088,37,141,-243
3169385368,3748,804,16580,-40,-28,-178
3169387075,3684,1424,16408,-120,32,86
3169388782,3880,896,16036,-102,46,82
3169390512,4204,820,15680,-115,40,-40
3169392224,4812,1412,15768,-226,124,-22
3169393934,4804,136,15788,-177,274,46
3169395640,4292,-268,16120,-147,241,-14
3169397348,3656,-1624,16340,-72,141,-73
3169399055,3332,-200,16764,60,275,-229
3169400796,3784,-48,16444,125,114,-177
3169402542,3928,1088,16280,114,82,-277
3169404275,4548,1932,16000,-108,165,30
3169406007,4068,1120,16152,5,218,-57
3169407734,3936,1144,16340,-47,124,-50
3169409452,3408,668,16052,-145,84,-95
3169411241,3580,1068,16220,-158,198,120
3169412944,3724,-548,16148,-38,76,135
3169414641,4212,-1012,15976,-3,100,-2
3169416334,4676,-176,16216,-1,294,-187
3169418025,4052,232,16488,137,319,-221
3169419714,3144,936,16508,-9,132,-121
3169421468,2832,748,16416,-46,132,-122
3169423160,3084,1560,16376,-25,166,-50
3169424869,3928,428,16372,-52,41,22
3169426580,4064,404,16452,-59,61,-61
3169428291,4024,684,16336,-140,133,-2
3169430000,3376,652,16188,-3,97,-45
3169431734,3780,40,16240,-36,12,3
3169433447,4100,-196,16176,-9,118,-30
3169435156,4324,-548,16032,110,226,-37
3169436865,4052,-76,16024,143,120,-207
3169438570,3832,524,16272,118,49,-198
3169440281,3120,1544,16620,46,234,-141
3169442017,3636,1812,16296,12,98,36
3169443727,3424,820,16440,-129,11,52
3169445435,3396,212,16432,-100,19,14
3169447143,3880,456,16556,-18,35,-31
3169448852,3764,168,16216,-32,7,-24
3169450559,3808,92,16248,-39,55,-85
3169452292,3760,552,16132,-4,130,-50
3169454006,4296,392,15828,76,55,-153
3169455717,3952,1204,15940,-27,135,-156
3169457425,3736,1200,16184,-42,193,-205
3169459132,3136,1576,16584,-18,-17,-26
3169460840,3840,380,16372,-39,-20,-21
3169462571,3940,808,16576,-165,182,-64
3169464281,3808,880,16416,-144,86,-14
3169465989,3780,752,16192,-52,-90,-1
3169467695,4032,700,15788,-140,46,0
3169469403,3884,520,16092,-172,165,-16
3169471113,3836,720,16260,-132,77,-103
3169472893,4112,444,15840,-149,-23,-29
3169474648,4092,428,15980,-149,152,-106
3169476373,4240,0,16448,-124,124,-78
3169478086,4100,304,16268,-23,105,-235
3169479783,3644,576,16504,-77,148,-146
3169481480,3640,800,16344,-36,146,-184
3169483250,3924,1644,16540,-142,-29,43
3169484966,3896,304,16000,-131,19,15
3169486687,4116,192,15816,-94,122,-51
3169488409,4240,512,15892,-94,91,-75
3169490125,4468,756,15816,-131,35,0
3169491836,4536,368,15980,-148,248,11
3169493569,4196,-516,16236,-68,219,-125
3169495278,3840,-64,16480,-33,171,-153
3169496986,3672,-244,16348,-13,230,-180
3169498693,3700,1300,16436,16,161,-155
3169500400,3656,1112,16296,-27,65,-18
3169502108,3976,932,16188,-33,131,-73
3169503841,4408,608,16212,-78,184,-80
3169505549,4180,1340,16108,-98,104,-23
3169507256,4084,1152,15812,-129,117,93
3169508964,3444,52,16144,-85,229,48
3169510673,3456,-160,16428,-31,172,-81
3169512380,3564,212,16160,-19,147,-70
3169514112,4244,216,16156,15,207,-78
3169515823,4380,572,16068,-1,269,-96
3169517532,3612,568,16120,-3,156,-186
3169519241,3088,784,16416,-37,115,-130
3169520949,3204,148,16188,18,177,-101
3169523793,3808,580,16416,-70,-3,55
3169525547,4160,372,16368,5,158,-58
3169527249,4124,500,16168,9,163,-20
3169528970,3460,552,16492,-10,64,-132
3169530684,3864,1532,16468,-92,118,21
3169532387,4016,304,15924,3,190,88
3169534084,4012,-608,16196,63,141,-21
3169535796,3740,-808,16680,88,37,-184
3169537509,3744,332,16628,117,159,-186
3169539220,3288,1072,16368,131,113,-136
3169540931,3184,1552,16680,9,15,-48
3169542642,4076,1840,16616,-119,119,-34
3169544379,3808,312,16176,-11,59,20
3169546090,3820,512,16160,6,40,-117
3169547800,3604,228,16480,-128,-22,3
3169549610,3344,480,16588,-26,170,-67
3169551441,3848,-16,16268,-4,5,-59
3169553216,4224,584,16052,0,-9,-128
3169555024,4808,752,15936,-48,182,-94
3169556722,3464,1316,16260,33,129,-159
3169558408,2864,992,16536,-22,-48,-129
3169560091,3232,1092,16620,-81,-15,-39
3169561768,3980,700,16384,-55,107,-8
3169563447,4180,148,16240,-157,-76,13
3169565180,4380,28,15848,-105,-81,-69
3169566886,3784,960,15892,-111,109,-33
3169568602,3912,612,16036,-68,131,-89
3169570310,3536,1188,16332,-199,15,-95
3169572058,3716,828,15940,-198,42,-26
3169573770,3980,724,16328,-90,86,-42
3169575518,4328,-132,16480,-120,23,-67
3169577237,3864,-88,16416,-64,150,-207
3169578947,3884,280,16124,-29,203,-174
3169580656,3600,572,16204,-4,31,-131
3169582362,3548,980,16556,-98,8,-53
3169584073,3768,768,16276,-102,36,12
3169585806,4224,852,15820,-80,32,-13
3169587518,4540,1268,15728,-208,38,-33
3169589227,4752,864,15928,-244,238,10
3169590934,4412,220,16136,-182,220,71
3169592641,3892,-1416,16196,-84,159,-96
3169594349,3376,-692,16640,-28,213,-195
3169596165,3644,292,16408,143,201,-198
3169597897,4020,944,16328,134,104,-189
3169599615,4620,1560,15824,-21,115,-60
3169601334,4200,1324,16276,-50,277,-100
3169603049,3876,1440,16240,-25,211,-34
3169604777,3372,772,16148,-118,31,-30
3169606540,3300,796,16212,-193,169,49
3169608259,3488,-488,16320,-42,146,94
3169609968,3988,-688,16172,-5,76,40
3169611677,4748,-520,16136,-17,161,-158
3169613392,4296,196,16172,84,369,-250
3169615131,3180,512,16396,74,163,-139
3169616887,2828,492,16248,59,140,-203
3169618597,3004,1816,16568,-49,178,-89
3169620311,3888,1336,16108,8,136,22
3169622022,3968,1220,16492,-40,63,36
3169623732,4036,336,16576,-136,95,-69
3169625450,3416,916,16396,-93,55,12
3169627191,3648,80,16300,-34,26,44
3169628904,4028,-180,15936,5,34,57
3169630616,3876,-1236,16112,100,240,-104
3169632326,4016,-400,16228,248,127,-244
3169634033,4036,304,16272,196,48,-254
3169635754,3616,1648,16296,-3,212,-131
3169637493,3720,2092,16128,-17,186,-53
3169639205,3404,876,16420,-128,-36,86
3169640914,3400,168,16164,-81,-37,-4
3169642623,3392,304,16880,-34,93,13
3169644337,3616,324,16348,15,12,-67
3169646048,4000,508,15836,-57,19,8
3169647782,4200,232,16196,-20,123,-76
3169649498,4344,620,16048,25,75,-125
3169651240,3428,680,16204,27,23,-182
3169653024,3192,1356,16444,-46,159,-229
3169654789,3200,1548,16528,-32,121,-100
3169656519,4404,352,16000,22,32,36
3169658325,3932,788,16876,-169,103,-176
3169660059,3644,500,16512,-148,-7,-11
3169661756,3452,984,16236,-71,32,-98
3169663452,4084,788,15812,-139,-56,120
3169665153,3884,640,16220,-191,152,-107
3169666854,3748,556,16080,-159,93,-62
3169668617,4440,608,15880,-69,-24,-107
3169670330,4256,244,15972,-162,105,-35
3169672091,4228,24,16304,-37,251,-239
3169673836,3868,696,16384,-29,155,-284
3169675566,3852,920,16352,-80,9,-90
3169677286,3680,948,16712,-94,116,-87
3169679006,3908,716,16252,-90,-6,-33
3169680766,3864,492,15932,-86,-36,-19
3169682520,4184,692,15940,-155,97,-44
3169684280,4332,440,15700,-115,127,-8
3169686001,4276,560,15784,-157,51,50
3169687698,4624,76,15752,-147,126,16
3169689403,4092,-144,16448,-50,348,-182
3169691105,3848,24,16624,14,139,-110
3169692803,3596,164,16468,14,103,-165
3169694537,3768,1000,16156,-53,173,-119
3169696968,4256,932,16036,1,87,-57
3169698670,4672,980,16024,-73,70,-36
3169700370,4344,620,15916,-112,195,-77
3169702068,3544,868,16120,-41,173,-23
3169703760,3608,524,15980,-74,102,32
3169705456,3460,220,16336,-77,186,-104
3169707150,3664,148,16428,-41,200,25
3169708844,4152,600,16392,22,133,-82
3169710542,4504,740,16196,-49,107,-32
3169712250,4072,500,16312,-10,322,-215
3169713958,3120,436,16296,5,153,-70
3169715669,2952,48,16448,11,71,-111
3169717423,3228,880,16180,-16,87,-103
3169719133,3732,456,16152,-6,145,78
3169720871,4308,700,16296,41,94,-88
3169722579,4332,532,16768,-53,23,1
3169724294,3600,460,16316,-6,176,-101
3169726010,3616,1400,16484,-57,95,32
3169727722,3808,732,16444,-61,48,24
3169729431,3876,-368,16184,-10,140,-52
3169731207,3828,-996,16648,115,121,-122
3169732908,3576,480,16548,68,51,-238
3169734617,3092,892,16440,20,45,-106
3169736323,3320,1292,16524,93,203,-119
3169738028,4072,1844,16296,-59,12,23
3169739729,3916,944,16332,-52,54,-12
3169741449,3924,956,16384,-53,102,-45
3169743150,3832,312,16460,-53,63,-3
3169744850,3576,532,16556,-65,40,-50
3169746544,3600,164,16500,-115,72,11
3169748245,4028,436,16140,40,111,-77
3169749947,4560,212,15756,-14,79,-158
3169751705,3832,1220,16296,2,141,-252
3169753415,3212,1440,16516,-3,143,-211
3169755130,3156,816,16512,-13,-23,-31
3169756841,3700,1196,16324,-115,1,-79
3169758567,3816,908,16772,-189,35,44
3169760287,4052,80,16264,-53,-21,-58
3169762028,4272,828,15884,-104,-20,-29
3169763783,3972,580,16064,-113,185,-58
3169765524,3940,836,16208,-103,200,-71
3169767257,3672,792,16004,-134,28,-95
3169768973,3892,1068,16400,-201,37,-63
3169770684,4152,-272,16380,-97,122,-33
3169772422,4048,-472,16340,-38,100,-111
3169774145,3676,-144,16328,-35,51,-189
3169775857,3804,644,16356,-16,138,-169
3169777567,3616,896,16268,-6,115,-100
3169779276,3748,816,16144,-90,-45,0
3169780985,4284,1024,15856,-154,26,-71
3169782717,4648,1092,15536,-134,179,-7
3169784429,4712,1028,15888,-161,186,-53
3169786135,4440,392,16164,-241,152,41
3169787843,4000,-672,16180,-112,243,-21
3169789552,3700,-988,16424,-37,215,-81
3169791259,3636,-804,16664,45,134,-174
3169792990,3832,848,16420,57,166,-173
3169794700,4448,1188,15888,70,188,-81
3169796409,4572,1292,15888,22,205,-99
3169798120,3876,1224,16252,-68,129,-76
3169799828,3296,956,16176,-72,142,-38
3169801543,3528,1136,16320,-142,123,14
3169803284,3528,532,16456,-172,64,112
3169804998,4024,-288,16216,-121,146,48
3169806712,4756,-840,15712,8,218,-66
3169808428,4804,-440,16096,62,285,-240
3169810137,3784,464,16492,27,211,-141
3169811847,2844,636,16436,83,291,-189
3169813630,2992,1116,16252,-9,94,-54
3169815338,3220,1184,16188,-5,54,-93
3169817041,4152,1396,16576,-84,164,49
3169818733,3948,596,16368,-60,116,-3
3169820426,3556,848,16292,-96,5,-4
3169822117,3112,472,16584,-138,3,13
3169823870,4128,-232,15976,6,154,85
3169825576,4096,-1236,15916,111,155,-91
3169827287,3896,-1268,16364,156,123,-204
3169829002,3656,600,16488,120,144,-279
3169830711,3932,1432,15972,89,150,-67
3169832418,3640,1692,16264,42,160,-170
3169834148,3632,1656,16516,-134,102,36
3169835858,3096,256,16468,-10,65,-22
3169837566,3468,368,16816,-28,-57,9
3169839274,3816,388,16352,-40,-53,-54
3169840981,3892,628,16112,-80,96,103
3169842687,4144,292,16004,43,109,-37
3169844395,4240,320,16256,34,20,-85
3169846102,3712,460,16268,0,80,-215
3169847808,3452,952,16108,64,142,-185
3169849515,3248,1544,16640,-61,-22,-63
3169851220,3708,936,16012,-64,-44,41
3169852926,4584,444,16676,-102,251,-143
3169854641,3372,540,16596,-161,-47,9
3169856378,3324,1256,16348,-103,-37,-125
3169858088,3472,1492,16228,-151,-13,2
3169859797,3972,556,16368,-84,103,22
3169861504,4064,276,15836,-161,-26,-54
3169863211,4304,280,15612,-122,14,-122
3169864930,4292,696,16208,-107,94,-15
3169866669,4048,-240,16468,-122,56,-65
3169869515,3480,856,16376,-74,170,-170
3169871264,3528,608,16500,-19,103,-67
3169872978,3776,972,16656,-64,-9,-153
3169874697,3880,624,16124,-154,-4,-25
3169876420,3864,980,16000,-103,112,-23
3169878208,4080,608,15924,-125,-5,53
3169879913,4456,324,15764,-134,63,-95
3169881612,4468,288,15624,-154,214,36
3169883304,4528,324,16032,-58,207,-55
3169885005,4256,-64,16096,-59,171,-63
3169886707,3672,188,16500,-47,214,-161
3169888404,3580,456,16620,11,176,-76
3169890108,3764,872,16304,-20,102,-58
3169891816,3868,376,16168,-18,107,-61
3169893523,4388,964,15932,-26,216,-116
3169895240,4480,652,15916,-6,150,-103
3169896959,4176,1044,15904,-51,135,-119
3169898694,3560,284,16172,-145,205,9
3169900404,3600,552,16376,-60,193,-78
3169902115,3512,468,16552,-85,100,22
3169903823,3760,172,16560,-9,160,-105
3169905552,4120,644,16416,-14,214,-30
3169907281,4016,728,16236,10,208,-147
3169909025,3584,776,16376,-17,151,-129
3169910736,3252,168,16436,-25,210,-99
3169912446,3072,708,16428,1,79,-69
3169914172,3668,152,16148,6,43,7
3169915880,3840,168,16028,23,122,-83
3169917588,4204,640,16416,12,148,-39
3169919319,3492,472,16292,-10,21,-69
3169921035,3516,788,16188,-30,47,-91
3169922749,3836,988,16332,-103,156,46
3169924459,4072,-108,16344,23,159,-40
3169926167,3924,-940,16428,72,64,-76
3169927874,3728,-740,16372,78,132,-242
3169929609,3080,584,16476,81,76,-111
3169931372,3400,1336,16532,98,63,-91
3169933225,4152,1608,16212,-70,92,32
3169935009,3988,1016,16340,-47,139,-29
3169936737,3776,1388,16428,-46,-24,43
3169938447,3712,60,16388,-75,21,-5
3169940250,3252,236,16608,-49,189,-77
3169941950,3372,280,16400,-33,103,-80
3169943636,3776,396,16168,-13,-70,-54
3169945318,4856,524,15792,-68,154,-55
3169946998,4596,248,16172,-12,244,-185
3169948677,3156,1672,16532,-4,61,-192
3169950409,3076,488,16456,-69,-12,-99
3169952112,3704,1332,16412,-80,86,-10
3169953822,3896,684,16500,-113,2,97
3169955533,3840,368,16220,-68,-100,-86
3169957241,4328,532,16092,-128,79,-54
3169958949,4164,1056,15732,-79,148,-45
3169960719,4164,964,15972,-160,81,9
3169962430,3580,568,15580,-190,78,-52
3169964140,3904,840,16220,-130,131,-89
3169965852,4076,672,16344,-134,57,-38
3169967560,4152,-424,16364,-64,30,-125
3169969269,3792,-120,16200,-63,174,-174
3169971002,3612,-16,16128,6,128,-195
3169972713,3756,1124,16396,-36,-27,-73
3169974423,3832,488,15984,-67,41,-46
3169976130,4144,1264,16044,-108,60,-32
3169977839,4320,920,15808,-126,27,-20
3169979545,4652,1444,15908,-185,116,-47
3169981277,4660,340,16188,-227,292,41
3169982986,4032,-296,16300,-125,133,15
3169984695,3884,-1060,16152,-99,119,21
3169986402,3608,-736,16360,45,287,-214
3169988113,3848,540,16284,112,210,-202
3169989823,3868,1084,16252,97,101,-177
3169991551,4484,1192,16144,-7,150,-102
3169993261,3916,1180,16328,-42,206,-85
3169994969,3420,1044,16344,-67,70,-102
3169996746,3388,1424,16176,-135,79,-36
3169998588,3632,492,16016,-181,221,56
3170000349,3788,-28,16340,-90,72,108
3170002169,4756,-572,15868,-23,137,-97
3170003883,4652,-328,16196,-20,264,-157
3170005588,3932,0,16532,89,359,-217
3170007278,3148,856,16336,52,104,-140
3170008957,2908,1068,16368,-13,147,-81
3170010638,3156,960,16332,6,172,-15
3170012326,3772,1144,16396,-29,76,-4
3170014034,4008,708,16404,-94,23,-25
3170015746,3912,848,16236,-121,95,-37
3170017455,3268,488,16404,-112,61,81
3170019160,3888,-372,16132,-10,22,1
3170020872,3908,-780,16304,1,59,-16
3170022612,3916,-1364,16148,157,236,-210
3170024325,3772,432,16376,163,70,-243
3170026029,4164,1628,15668,61,123,-152
3170027733,3820,1908,16348,32,272,-142
3170029447,3788,1852,16684,-51,174,-5
3170031159,3120,880,16600,-79,-54,47
3170032894,3152,240,16488,-79,44,11
3170034601,3476,380,16500,-19,32,-12
3170036311,3884,492,16400,-31,0,53
3170038021,4548,84,15868,-15,79,-55
3170039730,4728,176,15896,4,157,-137
3170042257,3320,256,16044,54,36,-251
3170044066,3280,1840,16292,-52,117,-208
3170045770,3248,1776,16484,-66,127,-101
3170047465,4536,1028,15864,-15,54,18
3170049157,4028,444,17044,-141,84,-211
3170050850,3452,452,16476,-135,-17,12
3170052542,3260,728,16188,-61,47,-64
3170054232,3620,1528,15784,-125,-73,81
3170055935,3904,716,16072,-184,122,59
3170057640,3980,152,15872,-162,90,57
3170059346,4788,336,15524,-66,40,-128
3170061053,4148,412,16012,-141,85,-112
3170062760,4076,144,16168,-60,225,-194
3170064469,3756,496,16348,-49,195,-236
3170066186,3344,688,16460,-103,29,-117
3170067914,3556,648,16712,-106,88,-113
3170069690,3664,520,16712,-63,-5,-75
3170071469,3860,1004,15984,-82,-22,-145
3170073212,4244,628,15788,-181,52,49
3170074928,4576,544,15868,-101,119,9
3170076619,4640,296,15656,-139,97,26
3170078308,4652,584,15732,-119,195,-77
3170079990,4328,-16,16164,-91,340,19
3170081707,3564,-172,16396,30,210,-107
3170083392,3320,4,16784,-11,144,-135
3170085078,3328,740,16692,-28,130,-127
3170086781,3932,756,16404,75,97,-70
3170088493,4212,956,16012,5,38,-70
3170090200,4956,708,15676,-144,123,-90
3170091907,4264,1108,15992,-52,285,-92
3170093626,3840,564,15948,-45,189,10
3170095380,3176,248,16316,-94,133,-115
3170097120,3416,144,16772,-102,211,-25
3170098845,3664,348,16616,37,113,-43
3170100589,4088,460,16172,15,103,-28
3170102321,4868,936,16204,-64,287,-171
3170104052,3912,868,16224,-26,241,0
3170105844,3068,220,16176,-1,105,-63
3170107548,2840,-84,16772,-28,49,-108
3170109246,3140,896,16344,-32,149,-114
3170110942,3960,-92,16184,59,59,8
3170112640,4396,556,16560,-32,50,-26
3170114344,4400,-72,16344,-79,98,-39
3170116092,3144,1120,16692,16,161,-110
3170117793,3508,584,16644,-26,36,-29
3170119487,4016,1220,15996,-68,120,-26
3170121181,3972,-340,16048,30,174,45
3170122875,4264,-344,16316,118,96,-129
3170124569,3880,-240,16472,84,49,-167
3170126257,3076,1104,16232,94,142,-201
3170128050,3280,1800,16384,56,54,23
3170129762,3792,932,16292,-80,-9,70
3170131476,3756,576,16308,-90,55,-31
3170133187,3732,884,16376,16,78,-49
3170134895,3892,548,16260,-6,9,-51
3170136602,3560,324,16432,-135,98,-49
3170138334,3732,124,16296,-92,184,-104
3170140068,3836,664,15908,-41,-21,18
3170141774,4264,-80,15812,-9,105,-228
3170143482,3816,1056,16188,-15,148,-328
3170145197,3164,1232,16524,-17,60,-83
3170146912,3372,808,16364,-1,-50,-38
3170148646,3928,724,16900,-158,57,-74
3170150356,3768,948,16564,-129,92,-30
3170152086,4428,572,15904,-107,-66,13
3170153797,4156,596,15784,-92,-7,22
3170155506,3864,736,16212,-116,211,-127
3170157213,3892,876,16080,-115,119,-74
3170158944,4080,1036,15852,-144,60,-135
3170160655,3996,352,16340,-225,95,6
3170162362,4000,-288,16300,-112,178,-113
3170164073,3840,52,16388,-80,29,-109
3170165789,3768,308,16256,-23,99,-224
3170167538,3668,888,16484,-64,130,-65
3170169391,3792,572,16460,-24,27,-56
3170171123,3836,968,16148,-87,-68,16
3170172839,4264,660,15908,-150,128,-76
3170174594,4672,1584,15776,-171,124,33
3170176361,4724,1128,15732,-240,113,112
3170178095,4332,-232,16140,-220,253,4
3170179835,3768,-884,16424,-64,223,-75
3170181572,3676,-680,16492,56,148,-192
3170183285,3760,-132,16408,57,165,-230
3170185021,3888,560,16168,57,174,-134
3170186774,4472,1460,15904,16,144,-122
3170188509,4196,772,16176,-78,160,-85
3170190235,3884,932,16064,-70,239,-141
3170191964,3196,1264,16220,-97,100,43
3170193730,3524,932,16100,-107,88,-12
3170195495,3820,-220,16288,-136,171,160
3170197237,4144,-812,16232,-13,177,15
3170198916,4948,120,15976,-29,179,-96
3170200569,4104,-108,16548,29,346,-175
3170202225,3520,140,16400,83,316,-198
3170203900,2700,708,16576,34,145,-191
3170205632,3108,1064,16172,14,71,-58
3170207342,3804,1088,16328,8,170,37
3170209033,3928,504,16460,-6,101,20
3170210719,4120,1192,16408,-109,43,-102
3170212410,3364,812,16344,-152,76,39
3170215242,3508,312,16724,-68,98,8
3170216997,3636,-1136,16180,17,6,-4
3170218715,3880,-1320,16220,180,193,-227
3170220424,4148,132,16240,182,102,-218
3170222211,4368,1476,15508,130,98,-198
3170223910,3688,2152,16420,-23,212,-87
3170225602,3612,1584,16352,-26,168,8
3170227292,2696,392,16476,-87,-37,-26
3170228984,2892,396,16584,-51,-62,-61
3170230674,3552,676,16788,-77,10,42
3170232401,4268,248,16008,-58,7,97
3170234116,4740,-340,15828,-55,43,-3
3170235840,4388,208,16568,-37,92,-128
3170237560,3468,-356,15844,118,136,-230
3170239274,2844,1828,16044,12,68,-259
3170240984,3420,2104,16196,-49,52,-173
3170242720,3924,2060,16152,-45,51,84
3170244433,4544,-460,16832,-56,156,-131
3170246141,3736,640,17016,-112,81,-257
3170247848,3460,52,16440,-208,-85,8
3170249568,3160,1496,16208,-72,25,18
3170251286,3996,612,16304,-146,1,54
3170253022,3960,576,16120,-175,-12,39
3170254735,4844,-8,15464,-76,119,-135
3170256445,4548,800,15988,-113,73,-154
3170258156,4208,756,15924,-160,106,-148
3170259867,3704,572,16232,-171,223,-71
3170261575,3360,316,16536,-50,99,-162
3170263308,3360,72,16980,-124,-37,-78
3170265019,3660,104,16532,-77,14,-177
3170266758,3768,1180,16200,-2,-15,-41
3170268495,4204,860,15644,-129,-40,-28
3170270215,5024,1104,15288,-197,143,113
3170271928,5004,420,15444,-174,215,84
3170273647,4784,-64,15788,-130,239,-14
3170275415,4044,-264,16244,-97,230,-134
3170277155,3348,-96,16476,29,226,-60
3170278853,3388,92,16920,7,188,-119
3170280558,3308,144,16960,-31,63,-114
3170282258,3744,1360,16488,5,69,-132
3170283982,4444,1500,16060,-20,28,4
3170285718,5296,928,15864,-38,147,-159
3170287422,4192,676,15816,-119,235,-81
3170289119,3080,524,15824,-18,242,-90
3170290836,3204,536,16156,-56,167,-24
3170292541,3452,328,16516,-74,109,-20
3170294251,3972,196,16224,-47,225,42
3170295959,4248,-40,16292,14,247,-44
3170297685,4476,544,16536,11,213,-165
3170299381,3544,1220,16608,-82,181,-43
3170301076,3048,228,16420,14,162,-46
3170302770,3056,320,16332,-29,85,-68
3170304535,3152,100,16280,-40,47,-106
3170306243,4132,660,16172,18,184,-54
3170307956,4348,436,16116,20,126,-7
3170309692,3912,404,16152,-11,76,-147
3170311402,3288,948,16696,-84,157,-50
3170313111,3788,968,16324,43,109,-22
3170314843,4040,544,16376,1,46,37
3170316599,4004,-360,16444,21,156,-98
3170318368,4092,-68,16420,64,175,-53
3170320236,2992,196,16168,93,34,-117
3170322071,3184,1348,16788,12,129,-135
3170323848,3300,1624,16652,-31,79,-52
3170325664,3652,1004,16292,-1,8,45
3170327361,3772,456,16400,-33,-48,-101
3170329048,4092,512,16496,-68,114,-51
3170330727,3764,560,16152,-28,149,-23
3170332401,3688,96,16400,-15,53,-63
3170334077,3768,1016,16248,-67,27,-93
3170335804,3928,700,15784,-50,62,-14
3170337511,4272,908,16076,14,142,-199
3170339238,3220,1188,16436,-42,39,-185
3170340959,3040,916,16532,-44,41,-14
3170342736,3764,920,16320,-38,43,-2
3170344569,3936,588,16616,-129,-15,61
3170346427,3700,-32,16268,-129,-1,-65
3170348135,4200,1156,15752,-49,20,-33
3170349834,4460,992,15600,-70,38,27
3170351526,3848,648,16160,-161,118,-65
3170353304,3744,732,15932,-149,146,-152
3170355090,3912,1096,16160,-167,-12,25
3170356888,4112,-148,16556,-156,97,-83
3170358589,3904,-112,16424,-129,159,-136
3170360301,3680,-144,16252,14,89,-218
3170362004,3736,1056,16336,-19,-21,-148
3170363701,3900,1028,16420,-88,34,-73
3170365406,3972,1092,16056,-98,89,14
3170367131,4112,672,15816,-123,9,2
3170368829,4348,600,15596,-101,32,-65
3170370546,4644,940,15776,-182,192,-51
3170372254,4396,616,16208,-139,170,29
3170373946,4044,-588,16196,-115,187,-37
3170375645,3624,-724,16524,-103,250,-106
3170377409,3584,-604,16476,36,176,-216
3170379115,4024,776,16488,14,28,-89
3170380827,4324,940,15908,2,218,-189
3170382533,4324,1432,16072,-4,258,-139
3170384250,4056,624,15960,-21,144,-100
3170385965,3480,1300,16124,-85,136,-78
3170388548,3556,884,16192,-99,205,-9
3170390271,3656,544,16388,-153,46,155
3170391983,4296,-424,16216,-62,141,-43
3170393726,4624,-120,16176,-51,266,-111
3170395435,4220,128,16404,49,295,-167
3170397150,3240,112,16396,31,145,-106
3170398929,2860,680,16400,-13,194,-145
3170400638,3000,500,16160,22,160,-79
3170402348,3472,1224,16340,16,69,-39
3170404081,4096,288,16324,-50,118,-17
3170405783,3896,1436,16256,-68,145,-64
3170407480,3712,1180,16168,-104,57,46
3170409201,3316,856,16532,-72,70,-33
3170410892,3792,-380,16316,-48,170,33
3170412588,3756,-868,15884,45,130,-39
3170414282,3884,-1012,16324,171,75,-155
3170415975,3800,40,16316,121,160,-157
3170417692,3704,788,15904,156,180,-183
3170419454,3732,2188,16528,-1,125,-71
3170421161,4004,1868,16608,-48,123,-14
3170422870,3060,248,16524,-107,85,57
3170424577,2720,-248,16248,-32,2,-88
3170426280,3472,964,16836,-82,-111,31
3170427983,3896,-20,16088,-51,71,19
3170429773,4796,140,15984,-32,129,-48
3170431498,4656,-312,16236,-29,76,-115
3170433214,3728,504,16020,70,58,-239
3170434923,2916,1192,16244,52,147,-258
3170436631,3148,2344,16176,8,95,-229
3170438337,3704,1828,16272,-123,-66,120
3170440099,4512,-128,16436,-55,215,-27
3170441837,3596,592,16656,-156,-57,-100
3170443616,3392,352,16200,-69,-34,-113
3170445371,3244,1380,16360,-55,69,-103
3170447094,3964,448,16112,-150,40,115
3170448804,4028,404,16076,-166,-26,-108
3170450516,4548,484,15732,-159,-21,-38
3170452216,4648,400,15896,-50,182,-188
3170453910,4060,732,16172,-158,110,-118
3170455603,3668,420,16280,-69,193,-251
3170457296,3300,916,16528,-64,159,-119
3170458990,3420,-112,16852,-45,53,-84
3170460751,3568,1108,16620,-83,-91,-104
3170462462,3924,1060,16156,-123,-54,41
3170464182,4004,672,15696,-63,35,21
3170465891,4860,844,15532,-155,51,-28
3170467600,4828,456,15464,-153,224,21
3170469307,4872,120,15712,-116,279,-11
3170471040,4044,-484,16316,-94,220,-92
3170472813,3284,72,16672,-7,181,-217
3170474589,3260,-48,16860,-31,213,-64
3170476331,3532,296,16380,45,179,-163
3170478086,3892,1444,16312,-54,31,-55
3170479849,4476,924,15876,-46,155,-95
3170481669,4764,920,15916,-68,177,-32
3170483392,4288,392,16072,-96,143,-88
3170485117,3468,956,15920,-95,222,-47
3170486819,3468,-8,16160,-41,183,60
3170488514,3588,160,16448,-29,111,-28
3170490198,3712,-40,16476,-35,124,-53
3170491949,4396,456,16324,69,305,-109
3170493645,3880,912,16432,-3,209,-86
3170495346,3588,736,16416,-44,136,-98
3170497041,3160,720,16328,-78,198,-137
3170498733,3200,104,16192,-10,121,-47
3170500426,3368,288,16164,25,84,-93
3170502181,3856,688,16156,-40,59,-60
3170503885,4232,544,16196,55,131,-26
3170505594,3620,804,16412,-23,86,-3
3170507303,3680,696,16560,-73,93,-30
3170509014,3832,1008,16272,-25,172,-13
3170510720,4208,-324,15808,69,135,25
3170512451,3952,-180,16080,49,136,-161
3170514161,3724,-168,16416,-5,145,-158
3170515870,2916,288,16592,157,94,-134
3170517577,3388,1456,16648,1,10,-63
3170519283,3804,1360,16260,-68,25,-26
3170520997,3996,1232,16044,-42,152,-1
3170522730,3880,284,16136,-9,-18,2
3170524439,3820,684,16456,-72,43,-122
3170526147,3640,760,16488,-101,131,-54
3170527854,3708,488,16288,58,120,-47
3170529561,4252,544,15924,-30,-12,-13
3170531267,4412,560,15972,-65,76,-139
3170532997,3988,1152,16276,-9,181,-118
3170534705,2960,956,16436,7,-23,-130
3170536413,3268,368,16300,-74,-12,-55
3170538120,3836,856,16048,-45,139,-97
3170539826,4156,404,16644,-82,26,29
3170541532,3736,708,16168,-148,-92,-94
3170543261,3928,816,15848,-146,6,-69
3170544969,3868,1124,15856,-94,130,-22
3170546677,3844,292,16248,-156,34,-45
3170548385,3852,1044,15928,-170,76,-146
3170550092,4012,1100,15728,-142,72,-24
3170551798,4192,172,16256,-93,82,-57
3170553528,4244,-280,16060,-124,141,-160
3170555237,3940,-172,16368,-53,195,-229
3170556946,3576,1232,16380,-6,38,-159
3170558651,3816,1020,16408,-100,-29,-5
3170561474,3960,592,16060,-78,108,-30
3170563217,4060,640,16116,-66,48,-35
3170564932,4528,796,15872,-143,52,-80
3170566630,4484,580,15824,-206,218,36
3170568322,4456,32,16184,-124,210,-12
3170570014,3976,-452,16176,-102,162,-11
3170571705,3740,-732,16564,-17,252,-261
3170573397,3804,748,16492,51,179,-173
3170575150,3952,820,16180,52,78,-101
3170576855,3964,1256,16196,-35,114,-56
3170578565,4172,640,16264,-45,252,-99
3170580274,4108,1148,16244,-62,123,-56
3170581983,3896,1108,16264,-102,94,17
3170583689,3672,472,16228,-118,162,49
3170585424,3512,168,16348,-66,182,28
3170587135,3688,-156,16164,-27,118,-6
3170588845,4388,164,16172,-8,160,-98
3170590551,4492,160,16380,18,321,-90
3170592259,3400,644,16296,17,200,-165
3170593970,3092,500,16312,-15,106,-94
3170595699,2968,592,16436,9,195,-230
3170597407,3472,1172,16444,0,84,17
3170599113,3892,712,16332,-2,34,52
3170600819,4168,340,16108,-38,73,-8
3170602531,3876,752,16248,-22,148,-111
3170604423,3776,1312,16388,-90,96,24
3170606286,3652,352,16276,-97,87,85
3170608050,3696,-384,15988,-20,166,36
3170609723,3484,-1288,16212,139,77,-137
3170611404,4080,-252,16408,172,117,-261
3170613092,3660,624,16464,109,142,-251
3170614780,3712,1704,16348,38,182,-3
3170616469,4136,2384,16304,-59,41,-34
3170618161,3664,436,16204,-108,86,23
3170619853,3184,132,16472,-32,110,-79
3170621554,3288,512,16476,-68,-45,-22
3170623253,3412,616,16444,-46,-19,15
3170624954,3836,424,16124,-60,50,68
3170626726,5032,28,16064,-5,118,-62
3170628438,4484,444,16108,11,68,-172
3170630149,2984,720,15984,58,177,-231
3170631871,2808,1500,16168,59,143,-247
3170633587,3324,1768,16564,-77,-34,-39
3170635306,4232,180,16208,-67,109,82
3170637086,3760,712,17104,-135,70,-157
3170638803,3836,552,16372,-181,-163,19
3170640503,3484,1132,16264,-84,1,-130
3170642204,3964,352,15620,-117,128,107
3170643901,3988,396,16284,-91,169,-119
3170645602,3788,488,15864,-180,-73,-9
3170647347,4804,900,15872,-73,131,-141
3170649069,4484,444,15856,-161,147,-56
3170650788,4152,-48,15932,-109,139,-137
3170652566,3432,516,16456,-60,207,-211
3170654282,3544,364,16556,-31,71,-84
3170655993,3232,776,16780,-98,-42,-95
3170657789,3460,784,16572,-109,-76,-51
3170659554,4024,728,15864,-54,43,18
3170661270,4608,1072,15596,-140,12,-19
3170662982,5276,924,15716,-213,159,26
3170664697,5088,540,15920,-207,287,33
3170666413,4256,-944,15948,-78,261,-39
3170668154,3408,-464,16512,-2,156,-255
3170669871,3408,-40,16632,-2,192,-224
3170671586,3556,428,16556,105,209,-141
3170673302,3980,1480,16316,-10,37,-61
3170675015,4500,1444,16032,-98,175,-53
3170676730,4580,1240,16228,-89,232,-20
3170678466,4156,472,16020,-51,124,-38
3170680183,3280,604,16176,-106,134,-89
3170681900,3100,420,16080,-132,188,4
3170683612,3512,-52,16428,-32,174,41
3170685327,4196,-248,16320,-18,66,-30
3170687083,4736,80,16392,10,294,-215
3170688892,3824,716,16632,25,267,-98
3170690648,3372,380,16272,37,167,-122
3170692362,2656,1228,16600,-50,121,-172
3170694064,3236,892,16468,-34,163,6
3170695773,3560,872,16244,4,133,20
3170697483,4164,64,16240,-45,28,-12
3170699255,4088,512,16152,-43,175,-126
3170700962,3468,816,16320,-55,88,-4
3170702673,3336,620,16484,-35,63,9
3170704391,3756,328,16216,-44,129,22
3170706108,4208,-784,15884,110,198,-49
3170707819,3960,-796,16216,168,126,-184
3170709554,4164,624,16432,17,75,-170
3170711265,3152,832,16452,68,222,-183
3170712976,3256,1396,16636,-51,22,67
3170714693,3532,708,16244,-56,-4,8
3170716417,3600,1248,16380,-100,46,2
3170718130,3952,256,16104,45,81,-70
3170719864,3968,552,16252,-58,-18,7
3170721580,3804,-60,16344,-55,50,-84
3170723290,3752,860,16460,25,133,-69
3170725005,4056,408,15984,10,66,-83
3170726815,3980,972,15948,-23,119,-151
3170728650,3648,940,16548,-46,148,-191
3170730445,3232,1024,16532,22,-5,-66
3170732178,3808,460,16460,-40,1,-84
3170734535,3744,608,16680,-183,146,-86
3170736237,3484,1088,16568,-124,-73,14
3170737927,4128,540,15840,-71,-88,-71
3170739615,4156,924,15844,-126,57,-89
3170741358,3884,156,16152,-144,171,-11
3170743052,3948,980,16012,-83,-15,-131
3170744752,4172,652,16016,-143,49,-94
3170746449,4296,704,16140,-157,174,-75
3170748146,4316,-240,16288,-109,151,-72
3170749838,3616,172,16272,-34,54,-211
3170751589,3668,308,16316,-45,108,-209
3170753295,3656,1312,16476,-58,57,-66
3170755008,3940,696,16288,-102,-11,31
3170756718,3824,260,16036,-150,76,-30
3170758422,4060,200,15948,-119,122,-61
3170760135,4480,1068,15788,-116,42,-16
3170761872,4552,340,15672,-159,152,4
3170763583,4504,340,15984,-160,281,-14
3170765357,3960,-640,16264,-40,238,-80
3170767095,3668,-244,16632,25,110,-201
3170768809,3852,420,16492,3,212,-195
3170770526,3824,1056,16100,44,223,-137
3170772254,4260,1192,15812,-30,116,12
3170773966,4316,700,15872,-69,205,-70
3170775668,3916,972,16128,-41,205,-102
3170777371,3416,940,16320,-39,77,-47
3170779068,3396,432,16352,-82,82,-2
3170780765,3524,64,16536,-143,189,49
3170782528,3896,-288,16040,-51,215,-4
3170784242,4444,460,15992,-1,99,-57
3170785964,4488,148,16044,-12,318,-179
3170787682,3340,552,16316,10,270,-129
3170789395,2980,208,16400,31,146,-158
3170791109,2908,760,16264,-2,42,-120
3170792849,3552,868,16336,-16,168,-15
3170794563,3860,916,16276,26,119,3
3170796293,4208,428,16440,-33,50,34
3170798015,3804,428,16184,-26,109,-102
3170799726,3724,1492,16248,-80,110,27
3170801437,3624,792,16808,-92,63,14
3170803185,4052,-192,16188,-17,94,50
3170804908,3580,-1508,16156,112,157,-156
3170806628,4032,104,16500,142,100,-287
3170808343,3668,796,16496,73,57,-179
3170810051,3608,1548,16072,72,249,-89
3170811759,3964,2236,16168,-43,97,-17
3170813495,3876,1672,16468,-71,-15,32
3170815204,3528,612,16448,-46,49,-54
3170816913,3624,304,16524,-48,60,8
3170818622,3420,788,16364,-85,-7,17
3170820329,3524,332,16316,-96,-7,101
3170822036,4532,-20,16184,34,121,-62
3170823767,4548,64,16012,40,66,-204
3170825477,4100,636,15984,42,83,-265
3170827185,3276,1332,16148,20,167,-194
3170828891,3128,1652,16576,-58,-7,-70
3170830597,4044,684,16188,-94,34,-27
3170832304,4144,844,16728,-148,170,-32
3170834035,3848,-44,16436,-124,-44,-6
3170835748,3588,864,16240,-91,-81,-74
3170837457,3768,852,15968,-111,-41,10
3170839167,3772,1032,16092,-106,196,-48
3170840876,3820,152,16048,-131,-8,-52
3170842583,4372,1260,16084,-174,19,-52
3170844307,4576,612,16000,-206,134,-3
3170846027,4336,128,16092,-63,170,-113
3170847740,3572,-68,16300,-52,111,-236
3170849497,3520,312,16404,-15,115,-121
3170851213,3556,444,16588,-5,113,-153
3170852927,3580,1000,16608,-89,-95,-10
3170854634,3948,1056,15936,-121,27,-52
3170856347,4068,1124,15956,-131,50,4
3170858063,5060,1024,15608,-175,76,-61
3170859775,4884,516,15936,-241,175,65
3170861489,3988,-896,16088,-79,318,-64
3170863203,3780,-728,16124,-28,253,-107
3170864916,3456,-560,16464,24,148,-228
3170866635,3800,708,16492,22,242,-148
3170868352,3832,912,16416,57,231,-105
3170870065,4460,1412,15964,3,91,-53
3170871778,4100,1272,16308,-83,131,-87
3170873494,3852,768,16176,-45,204,-32
3170875231,3520,708,16096,-42,148,-97
3170876945,3244,512,16452,-150,63,49
3170878660,3720,-88,16324,-99,169,17
3170880374,4492,-812,15948,28,143,-37
3170882086,4896,-492,16100,44,228,-190
3170883801,4236,724,16476,10,292,-174
3170885541,3208,764,16488,84,294,-164
3170887257,2940,1108,16616,41,171,-166
3170888972,3148,1048,16532,-44,82,-33
3170890684,3500,1120,16488,-63,159,39
3170892396,4036,96,16448,-24,65,-39
3170894113,3844,348,16208,-23,13,-83
3170895851,3344,532,16616,-84,58,-36
3170897566,3556,280,16668,-2,102,14
3170899280,4144,-48,16252,8,72,4
3170900992,3984,-824,15896,51,99,1
3170902720,4124,-84,16280,143,258,-279
3170904433,4012,476,16052,92,121,-128
3170907286,3288,1908,16392,-55,121,39
3170909038,3516,1124,16556,-58,126,34
3170910761,3436,1132,16316,-38,-45,33
3170912471,3876,280,16476,-33,-23,-38
3170914182,3864,748,16368,-23,68,-67
3170915897,3812,184,16296,-32,76,54
3170917598,3708,172,16316,46,33,-93
3170919293,3992,468,16244,-35,110,-114
3170920978,4112,656,15940,28,138,-121
3170922661,4024,1136,15940,28,102,-185
3170924345,3344,896,16452,-68,54,-115
3170926030,3296,844,16424,-19,122,-127
3170927766,3960,868,16312,-62,36,-34
3170929471,3668,828,16640,-148,9,-123
3170931186,3680,1292,16432,-187,27,-51
3170932898,3764,652,15912,-74,-16,14
3170934644,4048,980,15672,-110,13,5
3170936360,3876,356,16220,-184,132,-106
3170938097,3860,736,16184,-118,121,-108
3170939805,4072,820,15764,-130,-17,-2
3170941556,4128,-116,16176,-138,109,-65
3170943267,4108,-48,16536,-67,184,-162
3170944985,3964,112,16392,3,131,-148
3170946701,3648,644,16260,-33,32,-232
3170948437,3876,1216,16412,-137,99,-54
3170950152,3888,904,16080,-105,-6,31
3170951865,3940,468,15940,-128,-10,48
3170953579,4320,444,15980,-139,77,-96
3170955291,4440,996,16044,-134,138,-2
3170957002,4736,772,15652,-131,97,31
3170958757,4468,312,15928,-149,201,9
3170960481,4012,-920,16208,-27,303,-138
3170962197,3504,232,16528,43,146,-164
3170963915,3724,136,16292,7,103,-135
3170965626,3812,1084,16248,4,181,-123
3170967337,4132,988,15904,-22,206,-12
3170969076,4248,772,16264,-20,123,-62
3170970788,4344,924,16168,-84,109,-102
3170972499,3520,632,16200,-107,214,-27
3170974212,3540,664,16276,-108,118,20
3170975924,3420,152,16428,-126,71,46
3170977648,3764,-276,16408,-38,186,-135
3170979596,4396,212,16436,16,162,-6
3170981397,4384,544,16260,45,230,-143
3170983118,3520,316,16348,-50,245,-147
3170984810,3096,420,16384,26,259,-183
3170986500,3028,844,16372,-12,51,-36
3170988195,3388,916,16252,-40,64,-2
3170989952,3636,472,16252,-38,134,55
3170991645,4100,360,16244,13,94,-53
3170993369,4188,208,16312,-7,65,-113
3170995078,3612,1372,16224,-70,176,-20
3170996772,3712,856,16460,-80,153,35
3170998516,3672,400,15924,-26,32,39
3171000290,3572,-1512,16076,81,156,-109
3171002008,3804,104,16656,158,141,-265
3171003782,3636,392,16696,94,39,-168
3171005502,3320,2024,16236,74,118,-124
3171007219,4128,1812,16176,-44,145,31
3171008927,4216,1676,16452,-44,129,-34
3171010670,3656,772,16240,-108,-30,89
3171012413,3232,316,16360,-56,80,-34
3171014146,3544,348,16244,-28,34,8
3171015871,3588,172,16628,-38,-6,-6
3171017589,4320,-108,16152,9,61,-63
3171019305,4736,156,16160,23,176,-150
3171021100,3392,956,16064,23,83,-296
3171022789,3020,1760,16232,-21,49,-235
3171024462,3016,1164,16436,-56,91,-85
3171026140,3700,1192,16524,-81,-11,41
3171027813,4140,460,16416,-127,16,40
3171029484,3976,528,16568,-141,-17,-45
3171031159,3928,120,15920,-50,1,-66
3171032878,3496,760,15852,-47,7,-87
3171034632,4092,828,15892,-160,120,6
3171036436,3564,444,16220,-95,79,-55
3171038188,4312,856,16120,-137,11,-91
3171039907,4560,320,15968,-149,82,-101
3171041630,4436,4,16120,-89,186,-94
3171043432,3580,-316,16456,-39,155,-249
3171045139,3628,656,16664,-70,26,-194
3171046846,3336,912,16620,-131,49,-112
3171048546,3664,644,16416,-3,19,-18
3171050240,4012,1300,15884,-109,-62,-4
3171051951,4448,988,15544,-162,96,-71
3171053741,4844,1468,15568,-175,172,-4
3171055453,4964,308,15912,-189,188,54
3171057174,4152,-624,16048,-157,227,-6
3171058889,3500,-1124,16676,12,289,-148
3171060600,3404,-728,16608,67,193,-189
3171062349,3420,324,16520,71,115,-209
3171064149,4200,1556,16048,57,175,-113
3171065865,4464,1560,16056,-69,162,1
3171067580,4364,996,16268,-118,115,-32
3171069299,3928,1084,16152,-124,152,-95
3171071013,3404,420,16084,-116,168,28
3171072723,3344,408,16056,-90,161,13
3171074449,3520,-64,16360,-128,76,68
3171076157,4288,-528,15980,39,195,-76
3171077838,4888,8,16192,72,249,-172
3171080213,4104,824,16404,28,251,-205
3171081908,2908,1004,16476,4,242,-90
3171083591,2832,1104,16376,22,165,-70
3171085274,3392,1068,16236,-52,59,12
3171086962,3784,580,16484,-85,147,33
3171088653,4092,260,16468,-40,133,41
3171090345,3912,500,16152,-49,45,-88
3171092059,3524,376,16348,-100,49,-16
3171093753,3628,404,16476,19,152,-20
3171095447,3944,-256,16236,34,106,41
3171097152,3928,-568,16148,128,130,-210
3171098858,4120,328,16108,103,179,-161
3171100566,4056,788,16132,127,200,-157
3171102274,3364,1436,16084,51,125,-76
3171103982,3420,1564,16472,-59,94,-4
3171105722,3472,964,16284,-50,70,54
3171107431,3676,432,16424,-32,27,71
3171109139,3636,140,16348,-32,9,-90
3171110847,3860,572,16272,-74,59,-21
3171112554,3900,48,16196,7,64,-33
3171114261,4036,564,16132,17,19,-64
3171115967,4220,376,15924,-35,128,-221
3171117698,3816,1188,16100,8,135,-166
3171119406,3616,1100,16328,-2,64,-150
3171121113,3148,1320,16500,-42,20,-172
3171122819,3948,248,16364,-57,106,-20
3171124526,4140,668,16416,-51,172,-96
3171126261,3684,936,16528,-151,-98,27
3171127970,3756,872,16016,-127,6,-38
3171129707,4160,876,15664,-122,93,79
3171131420,3852,280,16184,-139,43,44
3171133128,3812,320,16204,-127,54,-159
3171134835,4228,640,15996,-96,68,-57
3171136595,4248,272,16252,-101,85,-80
3171138401,4260,4,16292,-122,102,-103
3171140206,3652,132,16424,-76,195,-249
3171141959,3592,1036,16496,-29,37,-142
3171143690,3712,860,16424,-103,-5,-97
3171145416,3704,1040,16484,-137,27,-36
3171147226,3876,272,16112,-95,51,19
3171148931,4028,688,16020,-78,-14,-50
3171150623,4284,484,15888,-163,111,-1
3171152309,4632,668,15432,-144,201,2
3171154001,4660,248,15952,-150,218,40
3171155694,4052,-540,16336,-57,210,-127
3171157438,3836,-480,16456,-27,282,-174
3171159142,3440,104,16480,39,182,-197
3171160843,3756,904,16320,20,75,-91
3171162542,3908,1184,16340,-54,123,-40
3171164259,4280,784,15908,-17,202,-86
3171165967,4272,1244,16036,-93,84,-27
3171167730,3776,520,15952,-100,165,-47
3171169443,3412,848,16248,-97,223,-58
3171171161,3584,24,16272,-89,128,13
3171172871,3564,252,16332,-38,111,-2
3171174581,4396,-316,16120,25,261,-97
3171176292,4612,364,16140,63,241,-159
3171178024,4016,548,16352,-9,219,-114
3171179734,3048,420,16256,6,229,-108
3171181442,2956,376,16268,18,239,-142
3171183151,3104,1200,16392,12,54,-80
3171184869,3836,356,16304,-53,54,6
3171186582,4120,212,16320,-6,163,0
3171188317,4072,-220,16340,-9,75,-40
3171190027,3384,1076,16528,-55,18,-31
3171191737,4096,1024,16176,-58,242,-52
3171193445,3764,964,16576,-21,228,-88
3171195152,4044,-928,16168,34,71,-28
3171196859,3972,-784,16416,95,105,-205
3171198591,3848,532,16512,122,212,-226
3171200302,3172,1200,16456,113,60,-134
3171202009,3380,1840,16752,-18,42,-2
3171203724,3980,1432,16352,-69,130,14
3171205437,3516,620,16456,-67,3,33
3171207148,3540,536,16216,-44,-20,-26
3171208936,3632,240,16348,-84,44,-31
3171210638,3420,184,16300,-23,101,11
3171212342,3736,-52,16412,-14,30,-42
3171214036,4536,484,16280,-55,-12,-40
3171215729,4308,52,16064,58,259,-298
3171217423,3140,1516,16284,20,43,-183
3171219173,3004,1140,16420,-21,3,-149
3171220878,3428,1548,16556,-73,49,-5
3171222589,3932,532,16448,-98,112,-15
3171224298,3820,900,16704,-124,7,-34
3171226007,4292,252,16212,-147,-116,31
3171227716,3964,584,15852,-74,131,3
3171229448,3908,860,16056,-102,100,-36
3171231158,3924,692,16144,-135,34,-30
3171232868,3924,944,15876,-124,81,-124
3171234575,4328,384,16184,-148,108,-58
3171236282,4372,308,16120,-120,86,-144
3171237990,3908,-136,16288,-115,92,-96
3171239723,3616,244,16300,11,192,-303
3171241433,3656,880,16676,-93,-17,-101
3171243140,3528,844,16576,-60,-25,-96
3171244847,3812,976,16220,-107,35,6
3171246554,4076,720,15864,-128,19,-32
3171248261,4496,1300,15584,-160,9,-24
3171249990,5056,1112,15600,-269,173,110
3171252867,3936,-916,16252,-86,194,-66
3171254615,3452,-1224,16420,-6,165,-213
3171256331,3580,28,16624,88,238,-165
3171258039,3724,204,16548,101,193,-139
3171259748,4200,1636,16024,24,57,-165
3171261530,4564,1536,16168,-146,229,29
3171263227,4276,768,16152,-63,274,-44
3171264921,3564,1088,16252,-73,99,-77
3171266616,3172,492,16108,-135,81,-73
3171268310,3584,544,16464,-107,200,120
3171270007,3788,-348,16420,-62,125,163
3171271759,4616,-260,15928,30,120,-86
3171273464,4892,-196,16276,30,365,-160
3171275176,4332,184,16400,118,348,-210
3171276887,3108,904,16544,53,155,-165
3171278594,2692,1564,16492,-31,167,-107
3171280302,3572,1096,16148,-30,139,42
3171282033,3688,908,16444,-60,83,31
3171283742,4256,-4,16436,-78,64,-88
3171285449,3528,720,16364,-118,70,-12
3171287155,3176,72,16336,-52,38,1
3171288862,3404,600,16744,-57,46,-51
3171290568,4188,-720,15996,22,142,-3
3171292301,4104,-572,16260,189,180,-141
3171294012,4184,-308,16224,164,114,-211
3171295720,3984,1632,16124,47,156,-191
3171297429,3204,1540,16392,39,207,-11
3171299134,3324,1660,16492,28,113,31
3171300840,3216,504,16592,-87,-22,3
3171302569,3480,572,16284,-29,51,19
3171304310,4048,292,16320,41,2,-60
3171306045,3992,648,16252,-31,-28,-41
3171307761,3848,96,16084,-46,131,-137
3171309472,4028,540,16264,14,58,-39
3171311179,3880,500,15948,45,69,-243
3171312888,3564,1308,15860,-17,87,-205
3171314594,3576,1108,16188,-7,188,-143
3171316301,3392,1208,16268,-5,-31,-13
3171318009,3880,584,16496,-56,-5,-25
3171319715,3964,1152,16816,-163,138,-59
3171321423,3800,676,16320,-132,-11,50
3171323157,3804,456,15804,-85,-37,-31
3171324865,3960,692,16052,-139,63,-42
3171326572,3912,404,16004,-106,153,-17
3171328282,3932,828,16012,-105,8,-126
3171329992,4008,848,15984,-157,-22,-68
3171331699,4156,344,16296,-139,153,-81
3171333429,4180,-16,16396,-90,89,-99
3171335140,3784,524,16564,-35,100,-286
3171336848,3800,928,16328,-106,113,-170
3171338554,3840,736,16416,-43,98,-151
3171340263,3868,1112,16080,-114,-49,16
3171341971,3884,320,16176,-144,-15,13
3171343701,4020,680,15880,-96,123,-29
3171345409,4524,604,15856,-123,34,22
3171347115,4552,448,15744,-143,140,11
3171348822,4540,328,15972,-130,283,-41
3171350527,4224,-444,16272,-32,217,-72
3171352236,3740,96,16484,-28,141,-170
3171353966,3420,-116,16764,-56,142,-166
3171355676,3800,588,16372,53,216,-201
3171357384,3940,960,16076,-36,53,8
3171359098,4332,996,16308,-69,218,-186
3171360815,4432,1356,16172,-115,241,-78
3171362523,3912,756,15924,-48,129,-52
3171364234,3560,532,16040,-123,153,13
3171365943,3680,236,16384,-128,239,-22
3171367649,3724,528,16540,-49,163,-3
3171369357,4200,48,16312,-43,121,-11
3171371065,4436,188,16156,1,308,-121
3171372772,4020,416,16336,36,329,-171
3171374506,3392,472,16224,28,131,-127
3171376216,3012,508,16500,-34,168,-115
3171377924,3156,672,16348,-4,123,-86
3171379695,3436,752,16388,-2,72,-37
3171381487,4040,496,16368,-27,39,-3
3171383253,4116,236,16408,-12,192,-105
3171385080,3164,736,16588,-76,6,-23
3171386787,3456,716,16044,-48,2,-67
3171388503,3764,1016,16472,-59,185,2
3171390290,4180,-788,16048,90,153,-72
3171392120,3952,-728,16492,94,48,-144
3171393849,3804,-312,16184,84,115,-210
3171395636,3248,896,16028,135,157,-138
3171397327,3252,1948,16604,32,-7,-27
3171399020,4192,1456,16424,-84,68,-14
3171400708,3728,1220,16384,-87,118,31
3171402391,3804,476,16048,-40,30,-38
3171404098,3584,280,16404,-97,-17,-27
3171405852,3384,-180,16500,-75,163,-47
3171407559,3656,-184,16204,1,154,-98
3171409281,4276,604,16012,-2,-69,-7
3171410994,4608,612,15724,10,177,-251
3171412709,4076,1472,16112,21,237,-247
3171414430,2992,1172,16440,-10,53,-162
3171416211,3132,1308,16488,-78,-67,29
3171417912,3944,680,16312,-81,131,-9
3171419615,3976,620,16592,-105,75,39
3171421314,4148,80,16144,-96,-109,-37
3171423008,4092,816,15928,-103,70,-53
3171425462,3860,712,16108,-104,152,-32
3171427196,3660,568,16132,-141,53,-141
3171428894,3928,1092,16192,-188,86,-53
3171430595,4100,452,16208,-126,129,-72
3171432293,4124,488,16588,-138,47,-58
3171433987,3748,-504,16164,-32,117,-228
3171435689,3416,140,16292,13,177,-281
3171437453,3832,616,16332,-16,49,-128
3171439161,3656,1420,16400,-73,-59,12
3171440883,4264,816,16040,-143,85,31
3171442600,4300,828,15784,-114,106,17
3171444308,4596,1316,15784,-175,79,-38
3171446031,4804,468,15748,-212,196,81
3171447910,4112,-380,16188,-111,261,-4
3171449767,3608,-1360,16268,-50,144,-130
3171451514,3472,-652,16540,-3,171,-246
3171453220,3832,-72,16324,72,191,-125
3171454917,4228,1556,16084,84,147,-209
3171456622,4412,2052,16000,-37,98,-74
3171458347,4248,1028,15912,-36,233,-94
3171460075,3620,1276,16064,-56,143,-32
3171461802,3436,1104,16232,-134,88,-46
3171463514,3408,1152,16336,-176,135,56
3171465218,3744,-440,16380,-82,162,162
3171466920,4432,-908,16048,10,136,-91
3171468646,4660,-368,16120,10,195,-185
3171470344,4040,120,16456,102,336,-188
3171472066,3260,904,16440,85,201,-155
3171473816,2980,856,16420,-13,94,-155
3171475553,3128,1408,16388,-38,150,-135
3171477259,3896,1016,16248,-24,162,65
3171478991,3880,824,16776,-63,73,-86
3171480690,3556,520,16416,-155,18,30
3171482387,3440,560,16268,-73,110,6
3171484089,3868,200,16160,-35,60,60
3171485781,4100,-828,15988,47,100,-89
3171487472,3924,-640,16220,94,157,-125
3171489241,4000,-312,16228,167,166,-154
3171490950,3628,1068,15828,115,49,-173
3171492663,3352,1636,16536,0,198,-79
3171494376,3700,1780,16236,7,211,-30
3171496098,3548,1124,16556,-114,9,48
3171497806,3320,180,16256,-64,8,-31
3171499539,3496,364,16728,-76,68,-37
3171501249,3680,-20,16332,-14,33,-5
3171502957,3988,468,16348,-9,17,-92
3171504665,4168,464,16344,-5,156,-59
3171506372,4156,364,15892,80,143,-102
3171508083,3544,952,16056,26,34,-200
3171509815,3300,1540,16436,-48,121,-184
3171511525,3356,1664,16416,-36,123,-90
3171513232,4168,324,16252,-33,28,83
3171514941,3804,572,16884,-142,89,-187
3171516649,3728,500,16420,-103,4,-7
3171518357,3692,872,16024,-37,16,-42
3171520091,3908,1116,15816,-161,-6,90
3171521801,3732,516,16108,-183,116,-91
3171523507,4056,516,15860,-114,-12,-2
3171525214,4464,268,15748,-94,-38,-48
3171526924,4232,280,16196,-150,113,-95
3171528633,4116,-28,16316,-27,176,-210
3171530343,3944,500,16288,0,106,-232
3171532113,3692,800,16424,-92,53,-121
3171533845,3736,1184,16568,-74,111,-103
3171535556,3868,828,16200,-137,-46,52
3171537278,3868,296,15844,-136,-15,29
3171538994,4196,428,15848,-119,153,-55
3171540781,4424,496,15732,-103,53,12
3171542488,4436,392,15620,-124,125,-6
3171544187,4468,244,15880,-149,230,-39
3171545880,4244,-184,16400,-37,210,-103
3171547580,3844,240,16492,-43,115,-140
3171549277,3732,-112,16440,-67,139,-132
3171550992,3560,948,16604,9,217,-215
3171552693,3960,656,16088,-19,50,-24
3171554390,4068,744,16116,15,48,-78
3171556086,4684,964,15968,-125,208,-11
3171557792,4304,1012,15992,-22,193,-88
3171559495,3904,216,16060,-95,125,24
3171561251,3528,-40,16144,-86,197,-18
3171562964,3396,292,16648,-27,240,-61
3171564684,3576,420,16624,11,94,-17
3171566395,4152,456,16268,-10,204,-87
3171568106,4300,620,16280,-37,275,-88
3171569814,3888,620,16312,0,152,-151
3171571581,3108,516,16420,-52,140,-60
3171573281,3060,124,16368,-25,176,-113
3171574974,3276,996,16208,3,114,-78
3171576666,3800,80,15988,-7,14,39
3171578357,4204,576,16260,15,214,-83
3171580069,4032,456,16296,-20,163,-54
3171581817,3556,1028,16184,-12,52,-130
3171583521,3692,992,16428,-83,165,36
3171585234,4028,344,15800,-4,183,83
3171586941,3660,-696,16280,61,96,-94
3171588648,3820,-464,16316,93,42,-193
3171590356,3152,692,16368,123,131,-169
3171592089,3204,1292,16084,103,118,-90
3171593798,3884,1684,16136,-4,6,-8
3171595505,3816,1328,16360,-103,97,34
3171598339,3616,776,16516,-46,21,-61
3171600112,3604,620,16320,-89,-15,5
3171601827,3544,452,16352,-58,168,-67
3171603602,3620,324,16280,-2,78,-10
3171605412,4620,556,15804,-22,-9,-82
3171607169,4688,464,15960,-52,121,-117
3171608872,3668,1228,16104,32,170,-181
3171610566,2692,948,16492,-18,-30,-111
3171612262,3616,948,16396,-91,31,-31
3171614039,3768,696,16488,-97,119,8
3171615724,4020,652,16596,-97,-15,-7
3171617401,4440,504,15536,-97,-77,-93
3171619074,4212,1112,15844,-113,66,-91
3171620744,4048,260,15856,-91,156,-2
3171622413,3628,1060,16368,-154,59,-141
3171624082,3664,892,16208,-187,4,-71
3171625777,3892,900,16436,-150,146,-61
3171627486,4180,-44,16356,-108,41,-46
3171629194,3908,-40,16056,-59,78,-209
3171630901,3880,240,16044,-49,144,-161
3171632608,3776,700,16436,0,109,-126
3171634317,3696,624,16428,-46,-9,-68
3171636055,3712,916,16280,-96,-3,-66
3171637767,4228,552,15844,-86,93,-27
3171639476,4400,1432,15820,-167,47,-15
3171641185,4660,768,15796,-246,185,-32
3171642893,4364,716,16220,-238,285,7
3171644600,4148,-1052,16060,-79,195,14
3171646307,3652,-756,16528,-22,128,-200
3171648039,3644,-560,16492,-14,157,-175
3171649781,3880,768,16224,146,238,-195
3171651518,4304,1312,15732,35,129,-78
3171653238,4256,1496,16000,-55,202,-64
3171654982,4072,1388,16280,-59,256,-27
3171656694,3428,1020,16224,-64,79,-21
3171658401,3388,900,16332,-153,73,-12
3171660114,3532,-48,16476,-135,174,138
3171661824,3988,-556,16152,-27,164,100
3171663532,4716,-420,15944,-21,161,-120
3171665318,4472,20,16164,36,323,-240
3171667026,3740,528,16344,68,348,-207
3171668725,2916,192,16324,98,176,-172
3171670420,2776,1628,16364,-35,87,-155
3171672113,3648,1240,16240,-9,166,-4
3171673803,4008,1284,16340,18,180,32
3171675552,4196,648,16416,-128,40,-34
3171677257,3368,1136,16332,-137,79,-8
3171678968,3532,660,16512,-103,101,100
3171680677,4000,-432,16064,-4,38,71
3171682386,3768,-1312,16496,59,125,-145
3171684094,3764,-508,16592,227,185,-232
3171685825,3832,244,16280,230,104,-225
3171687532,4096,1788,15900,50,103,-97
3171689239,3880,2020,16368,-51,271,-89
3171690945,3668,2132,16720,-79,216,-15
3171692651,3208,12,16200,-39,-22,-19
3171694358,3268,676,16796,-104,4,2
3171696094,3756,224,16196,-22,58,13
3171697805,3988,492,16196,-8,9,9
3171699581,4288,208,16136,-24,60,-99
3171701390,4296,528,16172,29,114,-111
3171703136,3336,660,15904,28,51,-133
3171704846,3096,856,15980,45,50,-189
3171706563,3228,1632,16612,-49,117,-140
3171708259,4616,520,15904,5,63,106
3171709941,4772,-76,16680,-26,185,-119
3171711622,3244,1096,16736,-234,-71,7
3171713302,3184,788,16316,-51,67,-141
3171714980,3940,1256,15648,-156,-70,228
3171716716,4220,24,16048,-162,29,66
3171718419,3928,532,16000,-201,88,-27
3171720130,4712,172,15600,-35,37,-143
3171721840,4352,736,16076,-43,11,-173
3171723562,4116,-176,16464,-165,144,-103
3171725347,3768,764,16480,-55,192,-265
3171727137,3568,536,16492,-56,-8,-35
3171728881,3576,476,16532,-38,28,-150
3171730591,3952,888,16492,-94,50,-68
3171732286,3972,828,16092,-63,30,-54
3171733981,4300,488,15772,-149,51,-15
3171735673,4432,508,15848,-205,107,-1
3171737439,4440,200,15672,-104,153,-19
3171739150,4540,436,15900,-148,119,15
3171740868,4124,-268,16508,-63,318,-191
3171742578,3580,284,16684,-4,265,-146
3171744287,3572,-184,16644,16,132,-121
3171745995,3556,1108,16328,-38,107,-109
3171747730,3856,624,16260,-60,173,-53
3171749440,4200,1200,16036,24,110,-53
3171751212,4984,704,15888,-93,125,-70
3171753026,4104,772,15856,-68,301,-51
3171754810,3332,352,16080,-29,182,-14
3171756554,3228,204,16432,-34,106,6
3171758371,3444,516,16716,-90,200,-47
3171760076,3752,-24,16152,-8,199,7
3171761767,4216,368,16284,17,161,-108
3171763452,4476,544,16300,-91,145,-61
3171765140,3676,780,16368,-5,301,-184
3171766825,3056,136,16408,4,110,-78
3171768565,2796,-96,16680,32,57,-159
3171770988,3740,408,15960,4,143,23
3171772692,4188,168,15904,84,128,-48
3171774386,4428,876,16456,-25,113,-21
3171776082,3384,228,16212,-51,154,-91
3171777772,3220,1292,16612,-29,116,-28
3171779487,3844,1000,16380,-48,20,44
3171781181,3940,-212,16396,3,137,-19
3171782873,3812,-896,16560,113,123,-116
3171784565,4168,-524,16148,110,82,-208
3171786259,3164,736,16084,56,68,-175
3171787950,3312,1064,16212,90,188,-128
3171789700,3516,1728,16468,58,89,-107
3171791402,3864,1020,16416,-78,-53,46
3171793113,3788,1108,16480,-24,93,-87
3171794824,3964,272,16480,-54,48,3
3171796535,3656,504,16140,-23,77,-94
3171798244,3612,328,16388,-112,127,13
3171799979,3724,340,16176,-13,57,-27
3171801725,4420,128,16032,-14,46,-108
3171803466,4156,556,16040,5,85,-231
3171805191,3532,1240,16384,-3,154,-203
3171806905,3128,892,16436,-30,-49,-40
3171808617,3580,492,16364,-61,-25,-64
3171810401,3932,1232,16668,-165,67,-24
3171812113,3952,-216,16124,-65,3,-51
3171813826,4168,1260,15796,-120,-68,-45
3171815522,4288,708,15700,-160,6,3
3171817214,3840,1100,16212,-98,179,-75
3171818905,3940,596,16016,-145,46,-133
3171820660,3956,1184,16324,-208,52,-42
3171822365,4184,580,16036,-196,161,14
3171824075,3904,-292,16272,-52,82,-80
3171825783,3664,-60,16268,-25,61,-204
3171827491,3608,376,16352,-26,83,-186
3171829200,3848,792,16444,10,92,-82
3171830931,3840,712,16308,-92,-34,-17
3171832639,4160,776,15884,-137,42,-88
3171834349,4420,1100,15708,-151,135,-60
3171836088,4908,1192,15588,-165,152,1
3171837797,4572,684,16176,-249,188,46
3171839505,4244,-484,16340,-205,197,18
3171841237,3556,-776,16532,-20,218,-117
3171842947,3552,-740,16648,8,129,-200
3171844654,3896,804,16320,46,197,-156
3171846361,4096,944,16140,54,204,-36
3171848096,4456,936,15844,38,136,-102
3171849805,3884,1164,16492,-32,152,-125
3171851536,3780,1280,16268,-66,198,-76
3171853245,3484,1148,16128,-63,146,-28
3171854953,3436,652,16284,-160,73,91
3171856662,3976,-140,16152,-132,161,21
3171858369,4308,-372,16316,-49,194,9
3171860079,4800,-576,15996,46,249,-162
3171861812,3776,376,16648,-2,250,-176
3171863522,3060,312,16436,91,259,-174
3171865231,2952,936,16292,96,184,-202
3171866939,3324,968,16336,4,41,-60
3171868647,4060,1560,16168,-56,150,-27
3171870353,4032,1192,16460,-73,139,66
3171872156,3816,928,16168,-85,17,-55
3171873887,3136,704,16724,-174,18,70
3171875604,4004,-232,16028,-5,131,49
3171877328,3964,-916,16304,26,116,17
3171879049,3928,-1476,16348,146,114,-226
3171880764,4088,224,16336,136,180,-261
3171882488,4144,1564,15640,108,128,-111
3171884208,4000,1688,16216,50,174,-164
3171885923,3616,2228,16644,-111,140,16
3171887641,2932,412,16368,1,48,14
3171889354,2828,304,16468,-20,-38,-18
3171891066,3568,588,16768,-75,-48,-28
3171892799,3996,688,16220,-40,85,119
3171894528,4656,-152,16076,13,77,-28
3171896257,4724,-20,16148,10,62,-142
3171897976,3752,208,16052,15,111,-197
3171899685,3120,1008,15856,86,142,-223
3171901393,3156,1752,16244,14,106,-241
3171903133,3504,1596,16188,-98,-43,8
3171904853,4896,300,16472,-75,256,-73
3171906570,3344,568,16588,-168,-105,14
3171908281,3428,-288,16156,-137,-135,-22
3171909992,2800,1764,16476,-123,19,-82
3171911699,4004,736,16072,-77,47,68
3171913430,4108,320,15912,-189,-65,68
3171915147,4564,-184,15700,-169,1,-70
3171916859,4560,748,15996,-67,137,-123
3171918568,3860,108,16264,-107,96,-100
3171920279,4012,188,16092,-106,108,-172
3171921989,3400,1064,16524,-93,208,-153
3171923719,3540,160,16684,-19,51,-64
3171925435,3676,768,16668,-104,-79,-121
3171927148,3896,620,16312,-130,-57,-33
3171928857,4176,1104,15928,-75,111,-65
3171930566,4700,332,15564,-160,16,57
3171932275,4772,124,15512,-146,115,-67
3171934004,4536,584,15748,-159,243,13
3171935723,4472,288,16072,-44,220,-60
3171937440,3612,-44,16320,-58,163,-95
3171939151,3564,144,16620,-74,227,-129
3171940860,3372,672,16668,-8,168,-108
3171943685,3908,560,16208,-36,98,-54
3171945432,4544,760,15884,-6,194,-98
3171947150,4672,716,15896,3,108,-108
3171948845,4180,900,15892,-61,142,-144
3171950537,3440,416,16272,-138,246,-34
3171952232,3372,220,16124,-57,261,-44
3171953921,3400,512,16544,-64,72,24
3171955689,3848,24,16424,-28,172,-103
3171957401,4260,848,16504,7,225,-56
3171959114,4392,732,16336,-11,215,-66
3171960827,3668,776,16340,-78,128,-52
3171962540,3180,-100,16540,-17,200,-74
3171964283,3256,796,16348,9,96,-106
3171966095,3420,752,16196,-30,41,-52
3171967813,3852,68,15996,44,145,-45
3171969515,4184,828,16372,21,109,-35
3171971212,3680,352,16532,10,66,-94
3171972914,3556,876,16692,-26,104,-148
3171974613,3628,728,16448,-44,171,4
3171976329,3924,272,16376,-19,57,3
3171978039,3940,-272,15920,9,69,18
3171979745,3852,-664,16224,85,209,-200
3171981447,3156,492,16216,83,51,-177
3171983145,3196,988,16276,98,-10,-144
3171984846,3592,1760,16356,15,42,-23
3171986612,3940,956,16268,-25,88,58
3171988324,3816,1132,16488,-48,-3,-69
3171990040,3908,916,16268,-94,-5,24
3171991749,3520,340,16248,-23,161,-91
3171993456,3388,376,16460,-67,62,-44
3171995181,3620,464,16080,-24,2,-52
3171996935,4268,584,15696,-6,69,-59
3171998652,4332,220,16204,-23,154,-161
3172000366,3228,1632,16684,-32,43,-214
3172002077,2696,1220,16716,-92,-24,-34
3172003896,3440,544,16300,7,77,-151
3172005836,3912,816,16816,-148,-34,46
3172007710,4076,544,16280,-77,8,-87
3172009417,4208,816,15860,-64,73,-10
3172011108,3992,1068,16188,-107,40,-59
3172012791,4016,1196,16112,-171,78,-35
3172014483,3764,672,15860,-174,158,-84
3172016177,3888,800,16228,-155,53,-40
3172017923,3984,368,16396,-158,7,-38
3172019626,3932,-432,16344,-88,102,-121
3172021337,3700,-52,16300,-4,144,-220
3172023047,3708,408,16248,-8,65,-180
3172024765,3764,1240,16264,-71,20,-103
3172026486,3828,652,15972,-68,65,11
3172028230,4060,1132,15804,-97,32,-57
3172029944,4152,884,15872,-121,-6,-55
3172031652,4548,1172,15732,-158,169,-47
3172033361,4576,668,16036,-188,203,68
3172035082,4192,-492,16112,-142,156,-13
3172036802,3984,-780,16236,-131,197,-63
3172038541,3612,-904,16424,39,279,-213
3172040256,3816,524,16468,104,101,-226
3172041967,3892,936,16136,69,64,-141
3172043680,4156,1152,15912,-1,224,-52
3172045399,3928,1160,16264,-31,162,-113
3172047113,3692,1240,16188,-99,42,-57
3172048848,3600,1296,16116,-155,124,-30
3172050558,3704,516,16100,-135,175,67
3172052266,3688,-76,16472,-110,74,40
3172053974,4596,-388,15884,-27,147,-64
3172055707,4716,-120,15984,17,330,-128
3172057433,4032,144,16364,57,308,-136
3172059175,3152,712,16364,62,179,-217
3172060886,2840,1064,16600,26,160,-156
3172062595,3212,1108,16560,52,152,-32
3172064307,3664,1052,16556,-25,37,-22
3172066029,4020,696,16456,-97,92,29
3172067742,4036,672,16264,-82,137,-11
3172069476,3576,1040,16456,-114,24,0
3172071252,3764,-256,16152,-78,79,-4
3172073076,3808,-1016,15936,43,144,46
3172074838,3928,-1776,15940,156,122,-125
3172076563,3836,128,16576,168,70,-270
3172078273,3952,1104,15836,126,172,-248
3172080110,3796,2072,16632,7,193,-56
3172081817,3948,1948,16400,-38,117,-18
3172083514,2932,1160,16536,-100,17,56
3172085209,2836,208,16504,-34,41,-33
3172086902,3460,400,16592,-71,-80,60
3172088594,3560,468,16324,-61,-43,43
3172090346,4704,-76,15860,-35,97,61
3172092073,4692,204,16320,48,106,-221
3172093786,4108,236,16144,12,22,-131
3172095498,3080,616,15888,58,172,-336
3172097207,3172,2016,16372,-33,135,-101
3172098916,4060,1704,16148,-30,-44,20
3172100625,4552,672,16024,-122,54,68
3172102333,3692,624,17136,-108,177,-197
3172104066,3376,228,16412,-110,-127,-16
3172105781,3152,772,16304,-79,-43,-131
3172107488,3964,1300,15512,-177,67,177
3172109197,4040,320,16100,-166,63,22
3172110915,4980,-92,15360,-79,0,-96
3172112622,4704,452,15880,-87,82,-201
3172114328,4292,504,15996,-85,226,-80
3172116885,3324,660,16512,-81,114,-226
3172118606,3244,736,16504,-120,99,-152
3172120317,3540,756,16932,-66,114,-105
3172122026,3628,540,16224,-59,-104,-63
3172123722,3928,948,16264,-80,-77,-100
3172125413,4144,728,15888,-179,52,38
3172127104,4996,628,15608,-91,99,9
3172128794,4872,188,15472,-161,140,-3
3172130486,4796,200,15652,-152,274,-64
3172132259,4300,56,16124,-75,331,-13
3172133981,3376,-176,16404,34,159,-119
3172135695,3340,-24,16740,-6,157,-167
3172137406,3224,632,16828,-1,193,-129
3172139175,3868,996,16336,24,-4,-66
3172140891,4628,956,15856,-92,35,-26
3172142628,4944,680,15868,-121,176,-72
3172144344,4444,964,15664,-75,262,-86
3172146060,3544,120,15748,-86,132,-52
3172147768,3260,420,16436,-108,232,-89
3172149482,3384,196,16544,-60,239,-7
3172151191,3540,112,16392,38,123,-36
3172152925,4412,412,16340,-48,207,-109
3172154640,4688,828,16492,-57,299,-166
3172156359,3748,1356,16332,-24,186,22
3172158068,2964,60,16160,-38,68,-3
3172159777,3056,352,16320,-49,172,-115
3172161491,3196,708,16316,-1,151,-68
3172163251,3984,76,15880,50,37,31
3172165021,4484,432,16456,-31,140,-51
3172166777,3760,420,16196,16,156,-152
3172168495,3412,1204,16448,23,125,-138
3172170200,3544,664,16504,-46,45,3
3172171899,3728,432,16352,-29,222,-43
3172173625,3704,-288,16188,35,169,-22
3172175321,4260,-288,16244,124,43,-158
3172177017,3516,252,16316,24,179,-146
3172178708,3224,2040,16260,78,101,-104
3172180400,3440,1812,16556,-17,-23,53
3172182093,3864,1064,16300,-72,57,13
3172183852,3688,340,16400,1,125,-92
3172185558,3588,884,16256,14,22,-105
3172187269,3708,208,16264,-23,-12,-58
3172188975,3676,728,16464,-73,185,-41
3172190726,4132,300,16068,-6,59,-105
3172192436,4168,912,15912,-39,18,-81
3172194168,4104,-56,15780,-50,153,-183
3172195877,3020,1992,16484,6,74,-195
3172197585,3452,468,16068,-22,-41,-83
3172199295,3476,804,16272,-29,10,-143
3172201002,4020,396,16632,-131,107,22
3172202712,3880,956,16368,-93,-80,21
3172204420,4224,644,15904,-119,-72,64
3172206135,4052,932,16012,-108,131,-17
3172207908,3896,460,16168,-94,151,-124
3172209632,3748,904,15928,-135,-3,-84
3172211342,4112,792,16116,-153,23,-113
3172213053,3984,644,16420,-181,114,53
3172214762,3920,-396,16356,-80,96,-194
3172216461,3892,128,16320,-85,70,-202
3172218158,3780,200,16268,-6,169,-246
3172219851,3672,1228,16516,-44,27,-50
3172221543,3728,660,16256,-47,-18,-65
3172223238,3764,996,16024,-99,13,-35
3172224930,4184,624,15792,-101,114,-63
3172226631,4840,1672,15664,-192,74,37
3172228343,4964,992,15588,-235,128,83
3172230050,4212,-568,15972,-162,264,48
3172231756,3740,-1000,16304,-27,180,-129
3172233466,3660,-560,16620,24,116,-202
3172235201,3744,100,16604,40,183,-222
3172236909,4036,940,16224,55,192,-83
3172238657,4372,1164,15860,-5,123,-96
3172240367,4376,1180,16176,-62,142,-99
3172242074,3944,964,16240,-49,225,-118
3172243779,3240,1268,16400,-119,101,23
3172245511,3300,648,16224,-134,94,33
3172247226,3392,564,16392,-130,111,99
3172248941,4116,-720,16228,-3,166,-35
3172250654,4988,252,16012,-5,192,-95
3172252365,4828,92,16316,-26,281,-121
3172254071,3356,188,16400,75,322,-139
3172255808,2708,672,16568,45,139,-175
3172257522,3076,944,16384,4,64,-61
3172259229,3512,928,16296,-4,147,-31
3172260940,4136,556,16340,-29,78,52
3172262649,4196,768,16220,-56,63,-158
3172264354,3840,1512,16148,-137,80,-51
3172266086,3464,448,16368,-76,159,3
3172267794,3596,368,16312,-61,65,39
3172269500,3676,-1556,16088,83,123,-80
3172271209,3612,-1572,16152,215,179,-225
3172272914,4108,4,16456,172,143,-280
3172274619,4184,2308,15632,49,103,-133
3172276329,4048,2424,16320,-42,280,-45
3172278036,3720,1864,16308,9,161,31
3172279740,2820,532,16464,-114,-52,25
3172281448,3100,556,16412,-56,67,-60
3172283153,3504,684,16924,-14,41,26
3172284858,3688,280,16148,-53,-64,93
3172286615,4884,-244,16020,-36,125,-115
3172289144,4316,-40,16176,50,106,-127
3172290859,3164,540,16124,90,59,-296
3172292570,3012,2096,16328,-62,94,-199
3172294278,3304,2104,16356,-60,136,-126
3172295982,4324,1216,15872,-52,9,207
3172297749,4292,364,16888,-118,139,-255
3172299461,3516,488,16400,-220,-73,165
3172301157,3412,-140,16172,-55,36,-14
3172302854,3572,1352,15988,-120,-19,75
3172304552,3944,428,16136,-175,123,-34
3172306243,3964,416,16092,-103,93,-4
3172307937,5032,432,15536,-60,34,-92
3172309638,4276,612,15916,-164,134,-183
3172311344,3888,544,16164,-125,281,-135
3172313048,3536,224,16448,-59,200,-187
3172314808,3232,616,16892,-92,16,-130
3172316521,3312,172,16948,-127,37,-80
3172318255,3640,1116,16340,-27,-43,-77
3172319968,3984,1220,15976,-88,-83,44
3172321708,4428,760,15468,-115,18,-46
3172323414,5316,936,15416,-194,212,117
3172325123,5132,112,15532,-155,228,56
3172326830,4416,-372,16020,-118,231,-64
3172328560,3648,-452,16532,-35,293,-197
3172330268,3364,316,16924,49,175,-134
3172331975,3280,296,17000,4,120,-94
3172333715,3244,748,16608,-23,105,-130
3172335423,4212,1380,16148,-33,31,-34
3172337132,4712,932,15772,-49,35,-4
3172338862,4904,1108,15908,-96,140,-115
3172340571,3936,244,15636,-82,271,-101
3172342279,3196,620,16160,-67,155,-27
3172343983,3492,168,16196,-90,130,32
3172345721,3612,516,16416,-39,176,1
3172347428,4472,128,16288,26,226,-15
3172349157,4472,544,16412,39,210,-156
3172350866,3908,956,16540,-23,200,-171
3172352583,2996,744,16384,-19,187,-42
3172354303,3200,608,16380,-24,60,-35
3172356059,3332,552,16320,-82,53,-18
3172357785,3584,44,16024,-41,166,-67
3172359528,4292,404,16240,21,106,-53
3172361246,3864,500,16144,-15,81,-128
3172362961,3300,848,16400,-52,131,-140
3172364673,3308,312,16936,3,90,-6
3172366420,3984,372,16452,19,23,5
3172368139,3844,-848,16660,52,158,-188
3172369877,4292,352,16148,103,239,-198
3172371586,3708,268,16036,58,112,-46
3172373344,3164,1224,16168,57,20,-120
3172375056,3388,1312,16336,-16,96,-53
3172376762,3688,1316,16080,-11,78,18
3172378472,3824,496,16164,-15,11,-5
3172380213,4012,512,16328,-67,55,-15
3172381926,4020,236,16280,-31,112,-44
3172383640,3504,472,16508,-18,85,-32
3172385354,3924,324,16284,-24,101,-112
3172387065,4148,1196,15752,-32,120,-74
3172388776,4396,852,15808,10,109,-123
3172390515,3732,1236,16304,-3,63,-187
3172392230,2856,976,16452,-71,70,-92
3172393945,3080,744,16448,-30,12,-63
3172395659,4192,892,16436,-126,-14,57
3172397370,3656,48,16552,-159,39,-6
3172399081,4024,644,16304,-33,-18,-115
3172400820,4144,964,15880,-45,-18,-76
3172402530,3880,876,16100,-141,152,-63
3172404243,3764,684,16148,-143,116,-83
3172405961,3868,776,15868,-119,30,-133
3172407680,4020,804,15888,-181,-4,-9
3172409395,4152,-244,16336,-126,205,-133
3172411138,3776,16,16444,-40,92,-140
3172412850,3672,92,16284,-22,33,-191
3172414663,3740,1124,16268,-70,68,-144
3172416524,3932,780,16604,-77,58,-6
3172418296,4204,960,15952,-88,-2,33
3172420044,4220,516,15736,-153,102,-6
3172421856,4508,688,15732,-107,197,-30
3172423550,4460,728,15840,-158,156,13
3172425233,4344,-220,16024,-122,168,-33
3172426915,4068,-372,16240,-113,257,-92
3172428600,3508,-792,16616,18,196,-148
3172430283,3868,600,16488,11,75,-196
3172432041,4292,864,15984,-6,199,-61
3172433745,4288,1100,16020,16,261,-98
3172435457,4168,892,16316,-47,168,-70
3172437169,3764,916,16220,-81,121,-96
3172438878,3668,1164,16336,-95,191,-47
3172440586,3540,832,16236,-91,161,31
3172442321,3772,464,16436,-134,85,116
3172444058,4308,-736,16216,-27,185,-16
3172445781,4580,0,15972,29,232,-97
3172447507,4048,460,16268,-3,213,-152
3172449226,3396,248,16404,31,250,-145
3172450936,2964,600,16396,28,187,-138
3172452670,3136,584,16196,9,88,-91
3172454381,3616,1208,16080,1,72,-45
3172456089,4132,188,16224,-16,197,22
3172457797,4104,268,16456,10,177,-112
3172459505,3496,1120,16232,-104,-30,39
3172462342,3748,968,16524,-80,187,48
3172464178,3868,-628,16016,33,96,-13
3172465887,3968,-1128,15984,125,97,-157
3172467588,3988,-792,16484,157,197,-265
3172469283,3388,596,16348,172,118,-200
3172470975,3388,2088,16436,24,59,-83
3172472666,3892,2012,16208,-33,107,-22
3172474415,3880,1576,16572,-72,115,58
3172476187,3044,-116,16636,-69,-28,-49
3172477919,3368,708,16908,-100,14,-51
3172479637,3516,604,16408,-87,53,47
3172481351,3880,216,16180,-24,41,-25
3172483061,4796,-120,16264,-44,19,-56
3172484773,4152,252,16048,84,189,-287
3172486483,3588,936,15812,91,172,-260
3172488187,3208,1824,16144,14,86,-223
3172489896,3544,2000,16236,-127,65,79
3172491604,3784,772,16368,-85,76,144
3172493311,4284,-52,16892,-84,98,-120
3172495019,3876,500,16332,-185,-84,-28
3172496726,3860,304,15968,-75,19,-80
3172498432,3648,1436,15932,-72,19,75
3172500143,3780,384,16344,-177,46,-45
3172501854,3976,508,15820,-163,75,-58
3172503560,4468,580,15728,-85,44,-65
3172505270,4416,556,16192,-117,79,-165
3172506978,3940,168,16264,-150,168,-123
3172508683,3824,-36,15912,-33,266,-214
3172510392,3396,608,16364,-39,57,-124
3172512100,3480,528,16760,-65,29,-180
3172513862,3872,1236,16436,-61,17,8
3172515661,4184,968,15664,-93,-57,58
3172517439,4252,772,15612,-128,-18,-5
3172519167,5032,1212,15592,-216,175,10
3172520874,4924,-144,15724,-112,238,36
3172522571,4472,-280,15928,-140,230,-30
3172524265,3788,-1032,16292,-82,205,-161
3172526098,3256,280,16636,42,254,-145
3172527795,3696,-64,16384,69,110,-161
3172529475,3600,944,16536,56,80,-270
3172531153,4416,1404,15980,-79,128,35
3172532834,4384,1320,16196,-4,136,-59
3172534511,4412,1068,15812,-83,99,-6
3172536183,3640,664,15696,-130,187,-142
3172537883,3580,616,16304,-93,232,76
3172539594,3592,72,16372,-67,157,85
3172541305,3728,-532,16348,-29,93,-22
3172543012,4456,112,16252,6,260,-105
3172544727,4336,552,16460,104,259,-192
3172546450,3844,1176,16460,31,182,-113
3172548180,3016,352,16376,-45,202,-161
3172549900,3032,1468,16464,-62,125,-10
3172551610,3472,340,16304,-18,44,-33
3172553320,3840,640,16420,-40,91,-87
3172555030,4036,348,16328,-36,128,-24
3172556739,3600,776,16192,13,35,-89
3172558449,3356,624,16384,-56,32,-47
3172560160,3468,416,16404,-13,171,-89
3172561867,3912,-20,16400,20,65,71
3172563577,3960,-444,16356,103,108,-179
3172565290,4316,208,16012,51,211,-191
3172567000,3680,656,15936,82,182,-96
3172568710,3212,1268,16236,74,26,-106
3172570419,3388,1516,16628,-28,-6,-37
3172572129,3400,1024,16284,-54,92,-37
3172573837,3840,636,16612,-32,-14,40
3172575545,3896,72,16232,-33,-7,-84
3172577253,3960,316,16184,-74,117,-120
3172578984,3708,252,16136,15,84,-48
3172580694,3992,544,16064,21,-1,-90
3172582402,4120,596,15776,-44,75,-99
3172584112,4124,1172,15912,5,196,-167
3172585818,3412,1048,16348,-37,34,-98
3172587524,3216,804,16196,-69,22,-23
3172589388,3524,268,16360,-60,87,-70
3172591176,4116,832,16676,-73,65,-15
3172592912,3820,416,16448,-120,-86,-11
3172594617,3892,740,15940,-132,45,-46
3172596316,4084,684,15896,-90,75,-43
3172598011,3760,780,16232,-142,36,-1
3172599807,3864,528,15932,-147,103,-155
3172601581,4208,1104,16052,-153,55,-46
3172603304,4256,596,16276,-145,26,-26
3172605038,4192,-192,16520,-97,117,-134
3172606770,3712,64,16528,-45,164,-204
3172608480,3732,976,16520,-21,-7,-163
3172610211,3816,1280,16232,-59,-16,-30
3172611910,3804,500,16212,-123,94,51
3172613606,3888,580,16024,-70,57,-22
3172615301,4232,756,16080,-81,-13,-34
3172616996,4488,724,15832,-129,68,-45
3172618689,4556,488,15672,-168,209,25
3172620456,4404,-80,16148,-101,194,-65
3172622169,4080,-288,16240,-83,177,-71
3172623881,3700,-708,16448,-5,271,-181
3172625591,3716,616,16620,52,159,-195
3172627303,3792,752,16428,25,59,-133
3172629011,4124,1384,16052,-23,168,-90
3172630744,4380,708,16164,-38,247,-47
3172632455,3992,1148,16324,-82,73,-54
3172634985,3608,616,16192,-116,153,14
3172636706,3592,196,16300,-64,196,52
3172638416,3656,-52,16492,-32,102,22
3172640137,3908,-136,16264,6,124,-28
3172641923,4536,380,16040,-11,281,-114
3172643625,4080,228,16152,3,230,-140
3172645330,3180,768,16304,-29,218,-135
3172647031,2820,220,16368,-1,186,-85
3172648727,3072,1248,16616,35,84,-154
3172650427,3772,492,16356,-47,31,62
3172652192,4096,340,16256,15,140,-34
3172653904,4012,296,16528,-23,125,-5
3172655617,3404,1264,16364,-55,18,-137
3172657328,3800,712,16568,-132,184,97
3172659038,3760,316,16172,-13,195,31
3172660749,3912,-1336,16304,48,58,15
3172662482,3884,-792,16312,150,121,-253
3172664193,4000,-480,16408,187,190,-223
3172665901,3428,1936,16036,122,55,-99
3172667608,3748,1616,16372,-35,89,-102
3172669322,3748,1816,16500,-111,142,54
3172671033,3516,668,16176,-49,58,108
3172672831,3032,580,16440,-25,-10,-127
3172674545,3560,156,16496,-92,14,-29
3172676248,3728,520,16280,3,48,50
3172677945,4240,-72,15908,-13,28,52
3172679637,4980,360,15956,-20,130,-191
3172681332,4020,688,15880,31,186,-162
3172683082,3160,928,15916,75,89,-201
3172684786,2848,1708,16756,-54,43,-195
3172686498,3684,1196,16380,-68,67,71
3172688210,4444,308,16568,-63,155,-106
3172689920,3760,732,17056,-159,-2,-112
3172691628,3916,64,16200,-158,-64,-55
3172693360,3408,1192,16244,-78,37,54
3172695069,4124,476,15460,-99,64,63
3172696779,3716,1048,16384,-183,71,-122
3172698486,4392,536,15836,-110,50,-86
3172700194,4604,712,16108,-102,65,-76
3172701905,4512,252,15936,-129,75,-81
3172703639,3824,0,16228,-72,245,-262
3172705350,3428,600,16452,-38,112,-163
3172707060,3428,600,16584,-37,-5,-82
3172708768,3268,716,16800,-81,4,-92
3172710475,3872,972,16164,-64,10,-4
3172712184,4088,768,15868,-119,-25,-60
3172713914,4660,1164,15540,-178,-21,-37
3172715621,5236,680,15532,-229,244,44
3172717330,4500,-236,15780,-159,231,53
3172719039,4260,-1208,15888,-113,180,-83
3172720746,3512,-612,16532,8,243,-320
3172722452,3456,-68,16816,70,218,-119
3172724185,3532,1304,16484,78,61,-155
3172725897,4180,1684,16192,-12,56,-52
3172727605,4572,1604,16068,-71,224,-14
3172729314,4552,1024,16132,-77,115,3
3172731021,4112,492,15972,-87,58,-1
3172732728,3220,380,16136,-110,217,-109
3172734440,3404,212,16196,-82,167,91
3172736149,3756,-312,16400,-17,80,-47
3172737859,4204,-164,16188,-28,126,-24
3172739571,4712,-152,16156,90,374,-248
3172741281,3928,1180,16468,24,171,-99
3172742990,3412,532,16352,7,138,-112
3172744701,2620,1504,16572,-63,224,-143
3172746412,3312,808,16384,-29,88,41
3172748122,3812,564,16304,-32,37,17
3172749833,4228,-8,16192,-68,99,1
3172751538,4092,780,16204,24,163,-105
3172753245,3408,640,16124,-36,22,31
3172754952,3340,228,16516,-39,49,-6
3172756658,4056,256,16216,-25,205,-5
3172758365,4168,-520,15876,125,141,-53
3172760074,4264,536,15976,102,103,-198
3172761784,4060,624,16388,-7,115,-155
3172763491,3152,772,16540,84,164,-102
3172765223,3352,1368,16608,-62,5,31
3172766953,3532,848,16296,-91,22,-20
3172768675,3668,1276,16264,-38,107,-12
3172770389,3956,152,16296,8,-42,6
3172772110,4024,500,16112,-75,11,1
3172773823,3876,-32,16040,-85,160,-35
3172775611,3664,816,16424,53,89,-112
3172777318,4204,388,16096,-43,17,-32
3172779017,4064,1036,15816,-14,206,-144
3172780711,3772,1016,16308,3,184,-147
3172782413,3232,1032,16524,2,-47,-131
3172784112,3564,424,16624,-78,9,-65
3172785826,4152,812,16128,-105,202,-54
3172787530,4016,808,16296,-142,34,-16
3172789230,3712,416,15964,-126,-117,3
3172790925,4204,824,15920,-67,145,-96
3172792625,3876,1132,16128,-103,153,-22
3172794323,3684,256,16116,-116,51,-149
3172796066,4196,1140,15652,-160,44,-50
3172797811,4232,644,15936,-129,124,-56
3172799543,4332,392,16260,-131,85,-30
3172801255,3988,-144,16420,-106,115,-187
3172802967,3756,184,16280,0,171,-162
3172804693,3492,652,16548,2,87,-191
3172807547,3892,688,16292,-119,14,-5
3172809314,3980,544,16060,-122,86,-13
3172811031,4320,820,15896,-114,27,-87
3172812743,4476,1176,15724,-179,38,-29
3172814453,4788,140,15744,-151,249,32
3172816164,4168,-164,16252,-114,201,-41
3172817955,3724,-836,16260,-14,193,-188
3172819659,3436,-144,16600,38,239,-257
3172821354,3760,388,16556,56,150,-160
3172823048,3904,1588,16112,9,88,-110
3172824742,4316,1428,15944,-96,145,17
3172826435,4528,772,16076,-45,248,-61
3172828186,3820,780,16288,-52,117,-108
3172829891,3456,872,16016,-104,140,33
3172831602,3508,388,16092,-87,216,70
3172833329,3524,180,16564,-98,104,55
3172835056,4200,-276,16240,-16,130,-102
3172836973,4828,120,15996,-27,293,-62
3172838765,3928,456,16452,54,284,-251
3172840478,3296,816,16544,-4,166,-156
3172842177,2916,364,16368,-1,201,-154
3172843873,3256,1328,16084,14,162,-36
3172845573,3536,680,16488,-8,57,50
3172847268,4156,488,16432,-6,55,-27
3172849026,4004,140,16472,-43,144,35
3172850797,3200,824,16336,2,34,-76
3172852656,3436,664,16876,-121,64,-7
3172854460,3940,444,16016,-28,140,-5
3172856198,3880,-1056,15848,69,148,-2
3172857950,4116,-1052,16228,142,64,-268
3172859773,3628,852,16420,69,174,-214
3172861472,3220,1344,15888,136,125,-103
3172863152,3668,2064,16484,14,82,-106
3172864826,3864,1636,16644,-171,68,44
3172866497,3524,924,15988,-96,104,79
3172868171,3116,404,16384,4,18,-31
3172869890,3796,416,16340,-77,-45,-44
3172871589,3600,748,16220,-103,66,1
3172873299,3972,-96,16216,-2,89,104
3172875009,4788,-88,16104,1,38,-166
3172876718,3884,720,15840,25,160,-244
3172878427,3572,1128,15860,84,207,-251
3172880162,2944,1788,16600,-5,43,-126
3172881874,3456,1192,16360,-93,-11,16
3172883583,3804,732,16284,-115,69,5
3172885290,3992,340,16800,-163,36,-13
3172886997,3908,80,16144,-97,-106,-107
3172888705,3600,1056,16088,-114,61,-33
3172890438,4144,716,15592,-82,172,-1
3172892151,3772,972,16068,-151,41,8
3172893863,4224,704,15692,-154,21,-138
3172895572,4436,1168,15980,-189,138,-87
3172897280,4536,208,16076,-102,168,-36
3172898989,3980,-216,16040,-49,136,-204
3172900721,3644,348,16284,-47,200,-184
3172902431,3388,524,16812,-5,113,-150
3172904141,3284,824,16960,-47,-67,-63
3172905850,3744,748,16208,-134,-55,-37
3172907557,4144,1016,15712,-121,64,-26
3172909292,4680,1100,15536,-151,-6,38
3172911052,5132,880,15700,-223,187,8
3172912775,4356,-684,15860,-148,281,29
3172914487,3992,-864,16012,-33,250,-73
3172916201,3424,-740,16352,-8,147,-212
3172917913,3404,28,16636,39,242,-207
3172919624,3768,1036,16380,90,133,-98
3172921358,4316,1632,16016,24,67,-69
3172923068,4532,1112,16144,-89,188,-74
3172924777,4164,1164,16384,-42,181,-69
3172926487,3720,708,16180,-53,86,-22
3172928198,3368,728,16184,-129,143,-47
3172929907,3332,-20,16432,-128,196,48
3172931708,4024,-116,16276,-18,63,56
3172933437,4536,-616,15844,-9,71,24
3172935181,4612,64,16360,39,357,-282
3172936945,3504,656,16524,52,273,-146
3172938697,2760,1272,16464,33,86,-186
3172940417,2884,1508,16492,-55,85,-93
3172942150,3540,956,16096,-39,183,46
3172943846,4048,384,16392,-54,63,42
3172945613,4080,240,16264,-77,62,-89
3172947401,3680,508,16208,-88,112,-115
3172949135,3308,736,16568,-29,71,31
3172950835,3880,32,16192,21,24,-18
3172952564,4024,-860,16144,39,179,-86
3172954261,4320,-920,15940,141,189,-178
3172955955,4208,776,16456,88,78,-176
3172957656,3232,696,16200,30,231,-148
3172959356,2928,1480,16436,57,244,-166
3172961051,3336,1340,16624,-57,20,46
3172962814,3424,996,16360,-63,-36,-2
3172964521,3704,76,16652,-31,39,32
3172966232,3956,540,16168,40,33,-51
3172967946,3992,316,16088,-60,1,32
3172969656,3692,252,16532,-6,152,-112
3172971366,3796,552,16324,28,124,-80
3172973098,3932,616,15844,29,29,-113
3172974809,4204,1256,16032,-13,160,-221
3172976518,3376,1140,16600,-15,104,-96
3172978226,3212,820,16384,9,29,-140
3172980784,4032,400,16344,-157,91,-43
3172982510,3760,1032,16576,-129,43,-50
3172984226,3732,660,16268,-124,-87,42
3172985922,4232,984,15784,-77,-2,-63
3172987610,3928,596,16020,-124,189,18
3172989311,3692,208,16368,-99,119,-104
3172991010,3996,1192,16024,-162,-58,-64
3172992704,4084,468,16092,-165,116,-13
3172994396,4220,-20,16432,-103,154,-131
3172996103,4120,-44,16508,-69,107,-204
3172997812,3776,88,16216,-40,116,-193
3172999518,3704,1120,16572,-58,126,-120
3173001225,3808,948,16456,-91,21,-59
3173002932,3784,1020,16080,-122,-20,-32
3173004664,4108,92,15892,-125,102,-30
3173006418,4288,1112,15888,-105,57,-87
3173008160,4300,1044,15848,-178,38,22
3173009880,4712,604,15532,-159,237,-9
3173011587,4524,-324,16044,-89,259,9
3173013291,3884,-388,16328,-6,192,-184
3173015071,3684,-156,16616,-15,138,-190
3173016770,3648,456,16424,55,220,-134
3173018461,3880,1072,16096,20,129,-114
3173020156,4184,1288,15940,-18,104,-70
3173021857,4436,968,16008,-76,184,-56
3173023547,3856,1068,16136,-70,203,-60
3173025301,3464,592,15940,-116,74,6
3173027010,3548,524,16072,-131,97,-1
3173028720,3600,-172,16336,-86,214,49
3173030428,4144,32,16236,-17,162,-104
3173032138,4348,64,16148,-35,114,-30
3173033848,4444,272,16192,16,326,-188
3173035619,3460,616,16332,50,242,-118
3173037321,2836,912,16348,23,89,-125
3173039016,2996,1112,16424,-37,126,-91
3173040708,3428,1052,16380,11,153,68
3173042400,3968,208,16444,9,64,-19
3173044091,4048,580,16436,-32,46,-47
3173045837,3972,260,16224,-20,172,-62
3173047541,3516,1148,16216,-37,65,-29
3173049252,3668,224,16540,-64,66,-84
3173050960,3908,520,15884,-34,135,-8
3173052667,3768,-1192,16032,162,168,-130
3173054373,3916,-136,16336,158,125,-294
3173056107,3524,440,16688,75,71,-208
3173057816,3276,1732,15880,83,184,-93
3173059522,3992,2308,16088,-21,61,55
3173061229,3896,1460,16252,-125,28,75
3173062937,3792,908,16440,-140,69,63
3173064642,3308,104,16364,-45,39,52
3173066372,3464,124,16240,-26,-2,-89
3173068084,3488,400,16408,-67,21,-18
3173069799,4124,-104,16172,41,127,-36
3173071511,4668,64,15988,17,71,-140
3173073218,4068,1020,15732,4,133,-314
3173074924,3616,1800,16144,-18,173,-289
3173076653,2960,1164,16524,-22,37,-68
3173078361,3560,908,16496,-80,-17,-24
3173080072,3944,552,16684,-172,115,-47
3173081781,4068,556,16444,-98,47,-14
3173083489,4124,600,15792,-80,-84,34
3173085197,3776,876,15796,-142,118,-51
3173086926,3900,1092,16064,-162,205,-2
3173088635,3760,500,16136,-105,55,-59
3173090344,4140,840,16212,-145,30,-102
3173092081,4388,604,16212,-149,138,-37
3173093790,4252,-164,16104,-72,123,-24
3173095524,3680,-412,16464,-35,110,-256
3173097280,3636,416,16500,-45,84,-256
3173099001,3536,1276,16572,-58,141,-173
3173100717,3532,820,16276,-48,-70,56
3173102432,3928,1364,16172,-171,-67,-31
3173104143,4592,888,15584,-139,169,-39
3173105853,4868,1508,15504,-114,201,-27
3173107585,4936,256,15820,-230,155,64
3173109296,4052,-372,16248,-169,223,8
3173111004,3608,-1400,16592,38,256,-135
3173112719,3404,-676,16524,98,177,-195
3173114427,3832,-200,16392,71,169,-242
3173116135,4080,1880,15940,99,132,-124
3173117864,4640,1920,15848,24,99,-15
3173119571,4248,1476,16164,-116,141,-39
3173121279,3700,780,16220,-97,206,-73
3173122987,3316,752,16056,-159,58,35
3173124693,3508,168,16192,-162,76,33
3173126399,3576,8,16420,-120,154,76
3173128107,4532,-948,16048,54,158,-70
3173129817,4972,-164,16036,72,207,-150
3173131525,4452,68,16528,30,344,-284
3173133232,3300,1264,16400,64,250,-139
3173134939,2736,1420,16444,-5,90,-64
3173136647,2960,1420,16392,-39,40,4
3173138356,3572,976,16448,-59,192,5
3173140096,4036,356,16536,-51,37,15
3173141815,4152,168,16276,-45,-3,-14
3173143528,3396,484,16348,-107,116,-29
3173145236,3548,244,16248,-23,110,-21
3173146944,3912,-496,16012,9,69,24
3173148676,4084,-972,16076,81,150,-89
3173150386,4088,144,16444,158,210,-209
3173153331,3468,1304,16328,80,129,-161
3173155112,3172,1664,16772,-16,189,-45
3173156845,3504,1244,16588,-65,17,44
3173158565,3472,936,16356,-74,-69,57
3173160284,3572,4,16564,-69,4,45
3173161979,3628,432,16512,-4,53,-71
3173163659,3836,512,16060,-45,4,0
3173165347,3992,340,15864,15,76,-104
3173167035,4228,440,15940,-16,176,-79
3173168717,4020,256,15980,33,119,-184
3173170397,3608,1396,16076,9,59,-186
3173172098,3384,952,16220,-17,136,-155
3173173807,3672,1204,16316,-41,8,-19
3173175525,4144,660,16468,-104,24,-23
3173177245,3616,1088,16944,-159,20,-57
3173178959,3652,588,16424,-124,-7,28
3173180696,3972,748,16080,-92,-25,-33
3173182405,4104,844,15896,-177,48,52
3173184116,3716,56,16072,-126,191,-60
3173185844,4092,656,15876,-80,18,-102
3173187551,4068,832,15952,-118,-45,-39
3173189258,4216,-4,16392,-119,131,-94
3173190988,4036,-128,16636,-75,174,-161
3173192697,3664,-84,16412,-47,95,-213
3173194404,3588,1284,16448,-83,19,-155
3173196132,3940,920,16412,-113,85,-43
3173197991,3848,768,16052,-148,0,21
3173199809,3896,132,15828,-98,36,-74
3173201650,4208,616,15876,-84,121,-105
3173203355,4508,520,15756,-104,82,34
3173205066,4664,844,16016,-145,143,-26
3173206764,4212,-648,16424,-125,284,-27
3173208456,3832,-796,16252,31,273,-133
3173210146,3316,-180,16800,18,111,-201
3173211897,3604,816,16456,2,145,-137
3173213599,3640,984,16300,7,206,-69
3173215309,4148,1112,15992,-33,114,-30
3173217019,4632,876,16036,-82,96,-112
3173218728,4176,940,16292,-131,209,8
3173220436,3776,348,15996,-69,209,11
3173222168,3332,632,16280,-125,133,-35
3173223880,3772,128,16224,-80,174,-10
3173225614,3788,136,16588,1,227,-37
3173227345,4388,-228,16272,27,181,-83
3173229056,4392,752,16396,-21,237,-166
3173230764,3532,348,16424,-10,283,-99
3173232497,3036,512,16176,64,188,-111
3173234218,2872,608,16532,-5,65,-121
3173235928,3332,832,16416,-46,114,43
3173237634,4188,188,16316,44,103,-16
3173239342,4352,320,16360,-22,83,-23
3173241048,4184,540,16128,-36,122,-165
3173242779,3332,1076,16212,-39,131,5
3173244488,3752,820,16336,-34,155,-55
3173246196,3772,696,16052,-52,15,86
3173247903,3584,-1040,16144,109,197,-145
3173249609,3920,-216,16300,150,137,-232
3173251316,3668,332,16516,89,94,-202
3173253045,3328,1992,16080,51,132,-57
3173254755,3980,1996,16256,-20,121,55
3173256464,4128,1488,16240,-50,87,38
3173258172,3388,540,16356,-67,-14,3
3173259880,3576,460,16348,-30,63,-8
3173261588,3448,540,16136,-56,65,-77
3173263317,3588,308,16336,-91,39,-10
3173265032,4136,248,16100,-49,104,-146
3173266741,4608,-40,15912,-7,94,-58
3173268447,4428,92,15884,53,141,-293
3173270154,3264,1848,16240,-36,56,-168
3173271861,3004,1316,16440,16,107,-151
3173273590,3680,700,16176,-97,-33,39
3173275298,4048,584,16164,-130,10,-35
3173277005,4040,344,16496,-174,7,7
3173278710,4204,448,15932,-40,5,-5
3173280453,3980,672,15696,-56,-6,-31
3173282255,3720,852,15980,-113,134,-84
3173284175,3732,648,16184,-105,151,-74
3173285900,4140,1188,16192,-154,21,-84
3173287599,4328,308,15972,-183,75,-92
3173289296,4224,144,16392,-149,177,-121
3173290991,3852,-708,16128,-23,113,-162
3173292685,3592,804,16648,-17,55,-255
3173294380,3648,1068,16592,-95,73,-107
3173296087,3620,908,16292,-13,49,-50
3173297804,4048,1060,15848,-120,-44,-4
3173299513,4500,1512,15456,-165,93,-54
3173301220,5000,1924,15772,-199,175,25
3173302929,4960,116,15968,-196,191,100
3173304669,3920,-872,16184,-142,163,-54
3173306381,3640,-1260,16528,-116,232,-88
3173308093,3464,-564,16492,125,224,-237
3173309805,3824,256,16660,79,105,-154
3173311514,4064,1492,15772,-4,145,-175
3173313227,4592,1896,15836,-34,226,-81
3173314961,4312,996,16044,-39,147,-83
3173316671,3396,1192,16480,-115,93,-97
3173318379,3300,1120,16044,-182,158,7
3173320090,3368,716,16132,-78,135,56
3173321802,3728,-388,16056,-100,34,129
3173323508,5032,-552,15664,-18,253,-105
3173326068,4916,-16,16328,59,358,-164
3173327791,3364,652,16352,133,208,-210
3173329501,2452,1080,16560,-9,214,-182
3173331211,2876,1416,16364,13,216,-105
3173332918,3628,1408,16120,-28,55,47
3173334627,3988,344,16580,-119,99,3
3173336409,4032,644,16268,-75,92,-81
3173338110,3528,796,16228,-73,-1,-18
3173339804,3232,164,16444,-48,39,-50
3173341498,4016,-124,16300,-33,158,39
3173343197,3904,-1004,16332,92,118,19
3173344890,4124,-840,16204,193,82,-256
3173346645,3984,624,16512,92,140,-268
3173348346,3408,1964,16452,45,234,-90
3173350052,3256,2024,16284,-10,155,-17
3173351757,3524,1540,16448,-117,46,60
3173353468,3328,324,16152,-69,57,23
3173355180,3332,252,16456,10,12,5
3173356914,3848,16,16460,4,-33,-37
3173358623,3808,332,16212,-59,73,15
3173360331,4180,692,16248,25,107,-126
3173362039,4120,608,16136,-16,1,-43
3173363746,3780,364,16192,29,122,-266
3173365453,3532,1500,16080,1,144,-164
3173367161,3452,1200,16376,17,76,-170
3173368868,3928,1336,16160,-38,-43,49
3173370575,4060,484,16868,-135,252,-196
3173372284,3572,952,16552,-178,-71,90
3173373989,3700,288,16376,-114,-108,-5
3173375697,3868,820,15844,-131,-12,55
3173377428,3744,524,16296,-100,187,-53
3173379136,3792,456,16312,-95,76,-17
3173380844,4168,628,15756,-84,8,-112
3173382551,4064,472,16032,-140,105,-23
3173384265,4136,108,16344,-66,111,-150
3173385974,3820,264,16472,-74,59,-177
3173387706,3668,688,16412,-77,140,-227
3173389416,3528,908,16476,-71,74,-65
3173391188,3952,1048,16588,-93,-44,-59
3173392996,3852,940,16228,-130,-42,1
3173394766,4032,292,15888,-107,130,-25
3173396504,4416,780,15884,-130,50,16
3173398305,4572,528,15628,-135,90,57
3173400056,4580,300,15704,-137,224,22
3173401759,4228,84,16308,-53,263,-56
3173403454,3800,-296,16552,7,112,-138
3173405176,3408,208,16644,-74,196,-171
3173406894,3616,424,16532,-7,204,-123
3173408629,3744,1092,16204,8,77,-84
3173410337,4540,464,15756,-81,108,-69
3173412066,4688,604,15992,-72,228,-160
3173413761,4492,1052,15916,-85,174,-22
3173415466,3644,464,15956,-67,145,-59
3173417168,3408,204,16132,-102,265,-6
3173418882,3320,84,16552,-53,237,-73
3173420598,3784,508,16540,-28,78,-12
3173422310,4268,340,16284,-6,208,-33
3173424034,4268,424,16152,22,283,-70
3173425740,3732,804,16408,-7,172,-125
3173427447,3336,116,16196,-6,103,-91
3173429171,3132,508,16468,-26,220,-98
3173430886,3276,404,16208,-2,137,-45
3173432581,3676,528,16368,9,16,-39
3173434277,4348,-112,16152,-5,157,-40
3173435973,4264,340,16328,28,250,-139
3173437695,3320,828,16524,-57,46,-40
3173439464,3624,1360,16488,-65,125,-89
3173441170,4140,256,15876,-21,189,67
3173442879,3880,-496,16152,66,135,-33
3173444590,3936,-728,16600,86,59,-151
3173446300,3360,284,16552,49,129,-118
3173448035,3252,600,15956,136,144,-110
3173449771,3324,1968,16636,32,-31,-40
3173451482,4348,1508,16412,-72,80,-3
3173453189,3796,500,16324,-55,94,61
3173454895,3736,216,16088,-6,38,-56
3173456645,3624,472,16460,-76,-6,-54
3173458417,3512,-120,16492,-64,185,-28
3173460184,3616,588,16400,-3,15,-99
3173461897,4180,508,16032,-41,-87,-20
3173463616,4528,676,15964,15,164,-248
3173465339,3676,1444,16300,18,141,-152
3173467057,2788,1468,16552,-36,-51,-93
3173468778,3364,1180,16348,-91,-48,-12
3173470571,4040,632,16364,-85,129,45
3173472275,3880,152,16356,-113,-33,-4
3173474018,4356,432,15620,-79,-26,-68
3173475766,3988,852,15916,-87,96,-71
3173477475,3844,800,16140,-111,158,-60
3173479215,3688,824,16164,-157,8,-112
3173480970,3952,1160,16228,-210,81,-4
3173482670,4136,472,16092,-150,102,-37
3173484402,4000,184,16500,-151,16,-71
3173486125,3984,-676,16212,-51,113,-213
3173487819,3580,60,16352,14,189,-274
3173489512,3892,616,16476,-17,45,-117
3173491281,3760,1312,16324,-74,-35,-17
3173492985,4072,1000,16000,-122,67,54
3173494693,4180,708,15708,-82,84,13
3173496401,4632,1332,15716,-194,106,-46
3173499237,4396,132,16308,-182,255,28
3173500990,3936,-1260,16380,-128,164,-37
3173502792,3396,-1500,16520,-46,127,-163
3173504493,3536,-172,16680,12,191,-177
3173506187,3960,344,16244,132,163,-203
3173507882,4188,1436,15892,76,136,-204
3173509575,4396,1256,16264,-81,203,-45
3173511267,3680,1208,16328,17,183,-84
3173513016,3652,1004,16312,-139,78,-39
3173514719,3588,1072,15972,-154,93,-27
3173516442,3680,556,16400,-164,207,226
3173518167,4196,-928,16028,-20,74,19
3173519882,4712,-264,16264,-25,207,-148
3173521593,4556,-32,16356,28,312,-174
3173523325,3624,308,16300,133,259,-145
3173525037,2664,812,16492,6,109,-169
3173526748,2788,1048,16448,-22,114,-157
3173528456,3536,1696,16320,-25,202,13
3173530162,3940,556,16432,-32,85,5
3173531880,3644,1092,16448,-141,45,-74
3173533640,3260,820,16472,-132,51,21
3173535366,3412,460,16576,-29,47,-12
3173537074,4088,-728,16204,-31,49,43
3173538784,4192,-1056,15980,35,171,-71
3173540492,4148,-716,16056,190,224,-134
3173542196,3692,692,16192,159,45,-230
3173543923,3544,1568,16272,18,193,-141
3173545638,3408,1948,16132,0,236,-87
3173547365,3628,1232,16396,-47,57,29
3173549088,3428,312,16460,-90,-41,8
3173550834,3668,164,16672,-30,103,-78
3173552571,3592,492,16428,-33,41,17
3173554290,3720,-24,16108,2,-1,-14
3173555993,4132,920,16132,-59,98,-53
3173557716,4408,188,16164,-9,120,-54
3173559407,3884,1028,16140,59,88,-235
3173561105,3516,960,16164,-37,96,-230
3173562806,3316,1808,16580,-21,28,-23
3173564563,3968,944,15988,-35,-8,104
3173566269,4344,420,16504,-112,162,-126
3173567978,3428,984,16544,-173,51,-25
3173569719,3500,1044,16176,-30,-67,-13
3173571428,3760,1180,15896,-66,-70,-5
3173573135,3892,504,16336,-206,91,-14
3173574845,4000,444,16044,-103,76,-106
3173576552,4212,816,15756,-99,-10,-38
3173578258,4332,76,15800,-106,11,-110
3173579970,4068,72,16304,-114,211,-144
3173581701,3680,632,16288,18,123,-252
3173583408,3640,1080,16332,-22,26,-190
3173585141,3648,940,16580,-124,101,-134
3173586850,4008,1204,16504,-120,33,-8
3173588558,4056,768,16068,-129,13,9
3173590266,4044,264,15756,-112,61,-20
3173591974,4296,520,16000,-106,153,-15
3173593708,4452,312,15744,-75,64,32
3173595440,4368,64,15768,-94,100,1
3173597150,4344,32,16100,-120,258,-65
3173598857,3892,184,16460,-3,208,-178
3173600569,3860,476,16492,-7,123,-141
3173602277,3668,212,16172,-25,191,-185
3173603985,3508,1128,16300,-31,185,-48
3173605818,3912,512,15956,-1,79,-88
3173607552,4252,964,16032,-30,92,-77
3173609263,4364,604,15888,-94,246,-92
3173610963,3980,944,15884,-75,137,21
3173612658,3612,64,16172,-97,132,-6
3173614351,3380,-12,16300,-67,228,-52
3173616135,3420,504,16596,-3,207,-63
3173617864,3888,360,16408,11,73,-46
3173619571,4204,548,16268,-15,144,-98
3173621266,4168,424,16408,-63,266,-69
3173622957,3484,552,16356,-3,110,-122
3173624652,3136,-36,16328,-42,117,-100
3173626470,3188,224,16248,-4,202,-166
3173628241,3608,968,16324,-18,63,3
3173629963,4156,216,16024,59,75,-6
3173631654,4032,808,16308,-29,206,-69
3173633346,3828,424,16716,-39,117,-81
3173635036,3752,1832,16432,-24,89,-65
3173636785,4036,420,15976,-58,208,73
