Time_us,Accel_X,Accel_Y,Accel_Z,Gyro_X,Gyro_Y,Gyro_Z
3926788189,3456,1316,16544,23,272,-191
3926790031,3324,1028,16284,-66,30,100
3926791731,3548,368,16188,-56,120,-56
3926793408,3748,748,16224,26,174,-89
3926795144,4112,400,16244,-30,12,134
3926796902,3668,636,16368,-68,159,-126
3926798611,3540,660,16404,2,102,-20
3926800326,3936,532,16292,37,61,51
3926802036,4256,-460,15856,-8,105,14
3926803736,4132,104,16180,131,334,-422
3926805466,3288,1372,16208,92,93,-115
3926807184,2768,996,16592,68,-55,-10
3926808897,3544,1844,16544,-62,151,-71
3926810720,3928,1576,16240,-21,94,66
3926812516,3524,852,16068,-25,-35,61
3926814251,3632,672,16404,-61,-35,40
3926815958,3892,688,16344,-21,117,-83
3926817695,3720,456,16568,-28,70,41
3926819477,3980,248,16068,-33,35,-48
3926821171,4064,540,16012,-22,100,-178
3926822857,4548,1092,15896,55,155,-176
3926824543,3584,1164,16412,-13,90,-208
3926826225,2904,944,16640,-59,29,-231
3926827909,3280,1272,16592,-61,65,-98
3926829645,3988,1480,16400,-136,-24,97
3926831351,4064,412,16452,-172,-7,5
3926833066,3860,620,16296,-147,48,-101
3926834779,4096,668,16024,-55,45,-55
3926836490,3900,1080,16236,-108,42,1
3926838202,3940,664,16384,-171,61,6
3926839935,4028,992,15808,-107,121,-115
3926841648,4024,544,16236,-118,16,-12
3926843361,4392,84,16400,-117,137,-104
3926845073,3992,168,16328,-70,205,-217
3926846782,3628,864,16024,27,84,-282
3926848489,3708,1472,16388,-137,11,-60
3926850244,3680,1012,16648,-190,55,50
3926851983,3980,492,16328,-91,41,-16
3926853839,4196,736,16032,-97,-17,-45
3926855620,4416,956,15840,-154,136,-65
3926857399,4552,880,15804,-160,117,54
3926859245,4440,-148,16216,-77,158,-46
3926861056,4036,-308,16060,-66,234,-74
3926862763,3896,-360,16212,70,252,-259
3926864520,3928,1108,16308,29,128,-194
3926866287,4204,1120,15788,-23,193,-8
3926868081,4336,928,16132,-27,267,-60
3926869819,4076,1036,16248,-7,124,-130
3926871551,3824,976,16276,-69,70,-106
3926873247,3476,1168,16184,-115,189,67
3926874977,3588,752,16144,-102,153,118
3926876691,3696,504,16392,-96,66,32
3926878389,4472,-140,16244,-69,187,-28
3926880144,4476,252,16260,7,267,-145
3926881874,4184,416,16168,32,236,-138
3926883572,3384,620,16444,42,217,-249
3926885316,3148,1012,16496,-18,208,-94
3926887047,3048,1012,16332,18,120,-95
3926888759,3584,1264,16372,-24,28,55
3926890502,3984,72,16436,-31,136,30
3926892206,3704,732,16368,1,80,-142
3926893901,3436,888,16256,-28,2,-78
3926895594,3976,1428,16520,-142,141,10
3926897298,3952,-272,15664,-33,114,220
3926899000,4004,-836,15964,65,96,32
3926900700,3892,-1008,16212,136,102,-307
3926902469,3624,516,16416,172,220,-358
3926904194,3344,2376,16180,114,123,-110
3926905990,3556,2380,16548,8,7,39
3926907793,4292,2076,16432,-143,121,60
3926909547,3476,616,16464,-43,66,26
3926911266,3232,624,16676,-41,-46,19
3926913074,3276,436,16852,-101,-50,58
3926914826,3764,340,16276,-32,100,34
3926916526,4244,532,16104,14,-6,-21
3926918224,4752,32,16148,-4,85,-171
3926919919,4184,652,15844,29,189,-370
3926921620,3056,1492,16320,26,123,-317
3926923375,2972,2156,16588,-85,-8,-17
3926925083,3524,1164,16496,-151,-31,257
3926926794,4356,132,16628,-50,158,-174
3926928508,3668,1112,16852,-134,-121,-91
3926930217,3680,692,16156,-86,-10,16
3926931952,3744,1248,15648,-53,77,30
3926933692,4064,816,15992,-121,68,-29
3926935406,3888,1224,16144,-196,54,-43
3926937119,4664,652,15948,-114,83,26
3926938829,4432,480,16216,-131,62,-126
3926940537,4180,-8,16308,-135,84,-60
3926942242,3584,-224,16228,55,198,-292
3926943956,3764,600,15980,27,138,-294
3926945702,3520,912,16360,-48,16,-225
3926947420,3604,1716,16272,-89,54,8
3926949141,4368,1032,15664,-121,-5,23
3926950857,4364,1344,15804,-150,8,-105
3926952568,4796,1240,15684,-243,106,80
3926954280,4596,372,15928,-164,219,111
3926955989,4116,-960,16220,-112,160,-9
3926957733,3996,-820,16264,-30,214,-199
3926959448,3752,132,16508,74,261,-197
3926962061,3960,1104,16188,82,149,-282
3926963788,4196,1824,16148,26,151,-220
3926965502,4056,1228,15984,2,218,-58
3926967202,3896,1444,16304,-100,102,-39
3926968895,3696,1164,16232,-165,56,-28
3926970590,3492,1172,16128,-174,190,29
3926972281,3928,-144,15920,-114,63,235
3926973973,4220,-696,15932,-79,92,55
3926975667,4576,-132,16272,-14,277,-178
3926977371,4264,272,16284,147,367,-234
3926979081,3332,884,16544,40,183,-179
3926980791,3076,948,16516,17,136,-177
3926982500,3308,1884,16540,26,199,-77
3926984211,3824,1140,16272,-77,59,179
3926985998,3712,452,16540,-89,78,-74
3926987704,3660,656,16348,-68,98,-75
3926989403,3388,624,16388,-22,21,-16
3926991098,3648,572,16536,-112,6,101
3926992792,3916,-136,16368,-73,62,101
3926994485,4008,-388,16104,98,193,-47
3926996236,4248,-580,16196,175,106,-270
3926997941,3828,1460,16372,84,221,-380
3926999651,3440,1628,16372,47,290,-152
3927001360,3340,2148,16232,29,87,-1
3927003072,3516,1236,16484,-115,-16,89
3927004782,3772,992,16076,-74,66,7
3927006513,3684,820,16612,-34,44,105
3927008225,3688,112,16076,-27,-75,35
3927009935,3572,412,16328,-46,69,-106
3927011642,3880,732,16220,31,100,-67
3927013353,4528,660,15808,24,14,-47
3927015062,4268,812,15816,-54,154,-221
3927016794,3920,872,16012,13,209,-287
3927018507,3048,1436,16672,25,57,-199
3927020217,3536,840,16500,-83,-55,-23
3927021927,3928,1548,16344,-142,189,-69
3927023637,3924,1300,16676,-114,91,8
3927025343,3768,1100,16396,-105,-101,7
3927027073,4044,532,16076,-147,14,14
3927028783,4068,804,16104,-89,140,-95
3927030493,3892,1080,16380,-142,63,61
3927032202,4048,260,15812,-133,-36,13
3927033913,4380,340,16136,-68,111,-130
3927035623,4516,264,16208,-34,104,-124
3927037354,4324,480,16172,-36,101,-215
3927039059,3560,608,16228,-35,174,-246
3927040769,3592,1276,16316,1,148,-315
3927042482,3712,1784,16320,-133,-43,-26
3927044194,3812,496,16268,-181,49,70
3927045905,4104,688,16208,-97,57,-52
3927047635,4088,524,15824,-69,-11,-79
3927049344,4300,1240,15724,-131,17,1
3927051052,4892,436,15872,-138,195,98
3927052761,4916,312,15992,-90,241,17
3927054468,4124,-476,16456,-17,170,-118
3927056179,3948,-20,16360,47,263,-277
3927057912,3680,1060,16420,61,202,-271
3927059626,3688,1464,16200,41,148,-136
3927061340,3904,1328,16100,-94,133,2
3927063048,4332,808,16192,-98,202,-51
3927064757,4324,1008,16124,-66,154,-162
3927066468,3692,1084,16204,-127,69,-18
3927068203,3568,448,16088,-136,216,29
3927069915,3684,-8,16348,-34,128,-19
3927071625,3760,-80,16404,22,94,-79
3927073336,4240,572,16080,-18,188,-74
3927075044,4516,644,15932,40,276,-121
3927076753,3772,972,16296,14,228,-212
3927078538,3108,812,16564,2,169,-124
3927080239,2992,700,16696,9,180,-97
3927081933,3276,1268,16520,-32,12,16
3927083627,3548,740,16396,-25,-28,137
3927085322,4120,148,16216,-39,111,30
3927087020,4064,132,16128,24,43,-132
3927088785,3692,1764,16348,-41,82,-177
3927090496,3732,1688,16476,-112,129,99
3927092206,3868,56,15980,15,148,107
3927093922,3620,-784,16152,103,91,-175
3927095631,3780,-564,16332,159,98,-336
3927097341,3504,1384,16328,119,192,-218
3927099073,3316,1536,16340,49,81,13
3927100783,3952,1936,16356,-95,38,47
3927102490,4028,1516,16364,-112,53,79
3927104203,3616,804,16208,-31,55,-45
3927105931,3364,648,16228,-60,-16,23
3927107656,3460,376,16372,-43,64,-12
3927109397,3504,372,16224,-44,52,13
3927111109,4192,136,16080,-3,-24,-60
3927112819,4912,460,16012,-28,152,-136
3927114529,4380,368,16024,7,202,-249
3927116236,3132,1852,16392,58,104,-408
3927117944,3112,1852,16460,-89,-43,-5
3927119677,3732,900,16384,-107,88,159
3927121389,3960,652,16388,-92,96,19
3927123097,4264,688,16400,-111,-99,-124
3927124808,4132,988,15888,-116,14,46
3927126514,3848,628,15764,-75,69,119
3927128226,3904,712,15992,-114,96,-106
3927129937,3668,968,15860,-128,57,-105
3927131648,4224,1052,16288,-97,106,-76
3927134231,4340,484,16308,-177,2,-19
3927135953,3908,-36,16288,-94,149,-194
3927137667,3692,172,16252,14,94,-207
3927139381,3916,556,16436,0,52,-294
3927141095,3540,1284,16564,-107,15,-64
3927142792,3988,1256,15900,-67,19,-8
3927144484,4144,1540,15540,-110,12,-26
3927146177,4852,1428,15828,-205,88,-18
3927147868,4876,1104,15828,-211,272,152
3927149560,4468,28,16216,-169,203,207
3927151252,3864,-1188,16340,-57,117,-83
3927152955,3520,-612,16676,19,223,-294
3927154661,3928,348,16316,143,154,-142
3927156376,4104,860,16120,98,124,-180
3927158209,4740,1496,15860,-48,178,-162
3927160092,3984,1728,16216,-10,292,-173
3927161950,3332,972,16596,-97,59,-11
3927163656,3128,1504,16280,-193,142,-44
3927165346,3228,1008,16568,-211,164,133
3927167030,3876,40,16244,-54,38,199
3927168714,5112,-792,16020,-19,89,-14
3927170396,5252,-452,15816,8,290,-289
3927172132,3908,752,16412,122,383,-276
3927173834,2872,788,16532,72,160,-132
3927175548,2896,1480,16468,-36,175,-193
3927177263,3152,1732,16368,-12,154,-38
3927178973,4268,1252,16144,-29,52,131
3927180681,4120,320,16712,-155,59,-21
3927182414,3880,588,16252,-142,95,-173
3927184127,2896,1120,16436,-47,86,-38
3927185833,3872,28,15988,-75,-40,155
3927187542,3940,-796,15788,5,165,-5
3927189252,4120,-1324,16068,181,225,-122
3927190962,4608,552,16144,237,128,-377
3927192694,4264,1812,15952,38,179,-198
3927194403,3596,2180,16556,18,264,-198
3927196112,3364,2432,16824,-89,158,162
3927197818,3224,176,16304,-87,-74,161
3927199525,3112,344,16664,-20,43,-127
3927201234,3480,568,16732,39,12,-73
3927202965,4160,836,16204,-60,-32,113
3927204676,4272,32,16200,-76,78,-11
3927206385,4544,176,16352,-6,151,-190
3927208097,3904,740,15904,52,48,-192
3927209803,3396,1048,16116,18,107,-306
3927211509,3244,2268,16464,-50,115,-170
3927213240,3252,1696,16344,-31,-3,50
3927214949,4660,704,16184,-113,45,85
3927216659,3828,948,16712,-142,122,-253
3927218367,3456,1284,16688,-149,28,-112
3927220078,3320,1008,16508,-93,-83,81
3927221787,4200,924,16064,-152,-25,149
3927223518,3904,348,16040,-124,134,-118
3927225229,4100,588,15648,-42,86,-83
3927226939,4488,644,15860,-91,-17,-93
3927228645,4048,208,16268,-151,131,-136
3927230349,4408,276,16192,-114,216,-207
3927232156,3656,772,16288,-55,91,-161
3927234097,3700,576,16296,-73,49,-213
3927235906,3668,1164,16680,-88,101,-110
3927237670,3972,1112,16000,-43,-25,-49
3927239401,3956,808,15948,-166,-23,82
3927241103,4428,656,15640,-153,77,62
3927242801,4684,1044,15544,-104,101,34
3927244496,4848,284,15644,-119,155,51
3927246193,4640,88,16128,-111,254,-54
3927247886,3692,-324,16464,32,235,-135
3927249580,3544,136,16708,32,106,-262
3927251271,3468,480,16536,-18,130,-210
3927252967,3680,984,16280,29,211,-112
3927254730,4136,1360,16296,-30,65,-45
3927256439,4824,940,15800,-98,122,-152
3927258154,4496,1408,15748,-91,256,-251
3927259865,3428,960,16056,-71,148,36
3927261573,3316,292,16316,-99,94,17
3927263282,3380,360,16540,-125,142,61
3927265057,3884,192,16144,23,220,-51
3927266770,4712,684,16124,-33,146,10
3927268468,4792,520,16048,-10,310,-180
3927270163,3840,748,16388,30,380,-292
3927271855,2960,748,16500,44,106,-128
3927273548,3060,916,16400,-74,74,-30
3927275301,3060,640,16292,-36,115,6
3927277006,3620,532,16448,15,39,-2
3927278716,4324,448,16524,-59,3,66
3927280425,4076,400,16228,-23,178,-160
3927282135,3708,1108,16448,-7,194,-264
3927283843,3648,1184,16204,-39,21,80
3927285589,4004,-36,15992,-21,181,73
3927287310,3724,-668,16300,144,162,-250
3927289033,4024,148,16452,151,123,-356
3927290761,3300,1112,16400,63,80,-117
3927292478,3488,1512,16288,70,170,-14
3927294193,3560,1768,16548,31,43,-57
3927295930,4056,1444,16052,-99,21,96
3927297645,3656,740,16480,-42,104,22
3927299358,3648,612,16512,-64,-23,-40
3927301068,3656,464,16456,-89,0,-65
3927302777,3640,352,16520,-64,70,51
3927304484,4188,184,16260,34,34,-149
3927307094,4640,572,15656,6,39,-116
3927308817,3788,1240,16196,40,229,-383
3927310527,2816,1872,16692,-9,13,-172
3927312239,3420,1788,16564,-133,-55,26
3927313945,3772,1492,16576,-176,53,168
3927315653,4128,344,16544,-100,27,40
3927317363,4084,532,16268,-78,-145,-102
3927319060,4364,812,15704,-94,-54,-35
3927320752,4096,840,15960,-79,188,17
3927322444,3928,520,16012,-149,51,-70
3927324139,3864,632,15944,-135,16,-182
3927325830,3952,1140,16264,-146,142,-167
3927327522,4268,436,16516,-94,79,-32
3927329250,3808,272,16512,-82,12,-178
3927330981,3684,176,16240,-56,96,-230
3927332700,3636,1136,16524,6,124,-224
3927334412,3840,1012,16492,-101,-93,27
3927336125,4112,1028,15972,-139,30,-4
3927337832,4312,1040,15740,-121,119,32
3927339540,4692,1196,15380,-108,124,-50
3927341249,4864,1056,16024,-228,171,38
3927342956,4404,340,16256,-195,212,83
3927344664,3840,-748,16460,-64,198,-55
3927346372,3500,-876,16500,13,132,-229
3927348112,3820,628,16544,86,228,-286
3927349824,4044,1124,16372,88,166,-157
3927351532,4704,1348,16112,13,146,-135
3927353238,4116,1484,16260,-76,173,-112
3927354947,3712,1460,16188,-37,190,-92
3927356655,3376,1456,16044,-85,111,-8
3927358385,3424,1020,16320,-178,84,55
3927360098,3764,452,16232,-107,125,195
3927361812,4224,-244,16176,-70,64,188
3927363520,5248,-668,15948,4,223,-188
3927365231,3924,404,16236,74,378,-333
3927366941,3196,408,16440,140,321,-209
3927368675,2996,1036,16332,16,106,-145
3927370385,3192,1272,16300,-47,93,-95
3927372096,3844,1372,16284,12,141,75
3927373801,4136,796,16600,-60,80,140
3927375509,4020,936,16448,-125,71,-199
3927377218,3224,1272,16560,-98,135,4
3927378949,3196,852,16716,-41,54,137
3927380659,3912,-188,16280,-86,-31,195
3927382367,3972,-1648,16008,117,137,-154
3927384078,4340,168,16332,274,177,-321
3927385786,4204,808,16092,184,49,-183
3927387493,3996,2112,16116,40,247,-211
3927389225,3856,2628,16204,-9,214,35
3927390936,3620,1600,16620,-31,90,195
3927392646,2832,260,16332,-85,-37,12
3927394355,3312,552,17012,-59,19,-100
3927396100,3724,1056,16240,-49,-46,126
3927397817,4380,464,15996,-99,-46,268
3927399551,4844,52,16276,-10,166,-212
3927401261,3960,240,15996,58,101,-194
3927402970,3252,1292,15588,97,77,-295
3927404677,3356,2064,16292,3,107,-198
3927406388,3592,2240,16288,-70,112,-58
3927408211,4668,680,16280,-111,45,214
3927410019,3888,448,16512,-120,60,-302
3927411781,3088,1024,16988,-158,6,-210
3927413503,3276,884,16516,-23,32,-21
3927415205,4072,1440,15840,-150,-53,219
3927416902,4160,560,16248,-248,-16,138
3927418688,4284,328,15820,-88,130,-159
3927420466,4664,752,15904,-97,6,-30
3927422226,4060,472,16228,-125,120,-183
3927423953,3708,624,16352,-115,196,-205
3927425648,3632,700,16228,-37,147,-209
3927427335,3492,692,16500,-74,-18,-119
3927429023,3584,780,16768,-61,70,-214
3927430783,3768,1328,16360,-30,42,-165
3927432576,4148,1284,15860,-127,-88,74
3927434313,4568,680,15528,-173,70,67
3927436046,4744,504,15752,-115,167,4
3927437749,4684,328,15476,-87,173,16
3927439516,4712,260,15880,-114,215,-49
3927441287,3808,-440,16620,-13,305,-107
3927443003,3136,460,16612,51,152,-251
3927444704,3516,512,16688,16,86,-142
3927446401,3872,1024,16480,-30,162,-184
3927448087,4232,1208,16152,-3,108,-49
3927449778,4368,1220,15816,-19,71,-80
3927451541,4412,1584,15700,-123,171,-101
3927453246,3812,892,15740,-89,218,4
3927454977,3568,480,16060,-123,149,56
3927456706,3464,-8,16424,-132,95,86
3927458427,3592,-420,16568,2,218,-99
3927460147,4276,548,16336,70,168,-145
3927461929,4448,1076,16404,12,223,-163
3927463633,3892,1068,16472,-43,277,-133
3927465335,3264,700,16372,22,166,-101
3927467038,2992,1044,16448,-38,36,-105
3927468733,3104,916,16176,-95,49,-9
3927470427,3520,616,16356,-43,134,-6
3927472128,3956,276,16248,3,-1,49
3927473922,4148,620,16336,-33,62,-123
3927475748,4196,892,16376,-62,188,-110
3927477540,4028,952,16000,40,138,-37
3927480162,3884,-256,16360,32,139,-65
3927481895,3424,128,16584,161,209,-241
3927483702,3384,636,16304,138,117,-225
3927485392,3500,1472,16048,72,-9,-39
3927487083,3744,1748,16200,-48,88,-13
3927488774,4004,1484,16232,-18,80,53
3927490451,4004,920,16244,-53,4,5
3927492129,3756,412,16280,-80,71,-5
3927493861,3392,672,16316,-12,106,-118
3927495561,3332,692,16608,-23,19,-40
3927497300,3756,604,16136,-26,-10,-56
3927499026,4624,648,15884,-16,123,-66
3927500750,4948,588,15768,29,152,-196
3927502475,3432,1088,16388,13,87,-307
3927504224,2936,1568,16220,-41,55,-77
3927505942,3548,1604,16348,-84,22,56
3927507653,3956,1332,16456,-112,-15,133
3927509366,4116,204,16504,-130,-6,-24
3927511078,4072,884,15860,-119,35,-77
3927512789,3680,844,16036,-95,47,-64
3927514497,3732,984,16284,-129,54,33
3927516209,4020,0,15948,-129,144,-40
3927517924,4024,1008,16020,-81,72,-259
3927519637,4232,936,16240,-83,24,-153
3927521380,4176,592,16324,-96,120,-58
3927523102,3804,276,16376,-34,147,-213
3927524843,3744,1736,16372,-30,59,-261
3927526557,3700,1704,16488,-109,33,-23
3927528270,3808,404,16100,-112,54,143
3927529983,3960,644,16140,-103,-20,-137
3927531690,3960,828,15956,-82,-22,-126
3927533398,4412,1232,15848,-126,121,-6
3927535131,4684,824,15932,-175,128,93
3927536843,4260,-80,16212,-130,200,-88
3927538551,4008,-328,16284,-131,253,-55
3927540263,3748,-728,16284,68,230,-243
3927541974,3784,1072,16480,53,133,-327
3927543682,3896,1360,16500,17,118,-179
3927545391,4284,1412,15956,-13,243,-10
3927547098,4140,688,16196,-70,116,-47
3927548805,3832,1420,16352,-46,109,-189
3927550513,3572,1556,16188,-93,155,-3
3927552270,3752,736,16332,-113,134,150
3927554092,3492,276,16404,-100,86,22
3927555962,4016,-292,16276,19,183,-38
3927557769,4876,360,16088,9,245,-124
3927559528,4264,128,16232,48,243,-186
3927561343,3148,828,16392,30,307,-298
3927563104,2928,848,16468,27,113,-93
3927564849,3472,1788,16440,-2,52,-112
3927566607,3724,1564,16488,-85,71,38
3927568345,4156,360,16352,-22,156,112
3927570118,3620,456,16376,-53,8,-117
3927571918,3800,1628,16404,-96,136,-126
3927573728,3996,708,16308,-90,82,283
3927575470,3924,-528,15956,-23,37,276
3927577221,3516,-1868,16196,154,59,-267
3927578962,4028,172,16588,249,216,-454
3927580661,3912,2264,15900,125,143,-160
3927582371,3756,2536,16292,-1,120,-15
3927584081,4264,2312,16392,-127,154,-48
3927585761,3092,808,16468,-83,5,143
3927587505,3008,-284,16264,-34,-41,80
3927589188,3272,764,16684,-76,0,-154
3927590851,3564,688,16252,-35,34,97
3927592505,3964,720,15904,-2,-6,130
3927594155,5044,-148,16352,-27,7,14
3927595813,4356,724,15936,58,206,-445
3927597481,3400,1212,15900,92,182,-328
3927599179,2904,1704,16436,17,73,-166
3927600864,3376,1616,16504,-122,-65,120
3927602523,4156,772,15860,-96,17,206
3927604216,4372,696,16768,-78,205,-307
3927605902,3672,988,16296,-198,-176,89
3927607583,3256,900,16096,-46,70,-141
3927609293,3836,1748,15664,-84,81,3
3927611039,3976,264,16064,-200,11,53
3927612823,4044,804,15884,-140,36,-72
3927614566,4744,508,16032,-58,96,-126
3927616293,4624,968,15724,-75,104,-162
3927618022,4084,-420,16200,-117,114,-70
3927619738,3512,856,16392,29,215,-321
3927621494,3532,1216,16684,-5,99,-185
3927623238,3372,1004,16636,-65,4,-92
3927624971,3744,1396,16240,-120,10,13
3927626697,4024,808,15764,-86,25,-27
3927628418,4336,1244,15940,-142,4,-31
3927630174,4844,824,15588,-241,99,112
3927631911,4508,-60,15848,-136,259,17
3927633639,4268,-1008,16328,-54,201,-67
3927635395,3832,-920,16372,23,216,-296
3927637150,3372,656,16648,83,248,-207
3927638974,3796,876,16404,69,111,-186
3927640709,4016,1612,16588,-56,121,-50
3927642476,4140,1504,16316,0,180,-127
3927644329,4316,1716,16348,-76,134,-26
3927646024,4032,1064,15984,-137,84,18
3927647694,3656,596,15924,-119,227,20
3927649431,3460,180,16132,-78,174,69
3927651097,3888,-300,16468,-38,59,12
3927653567,4340,-68,16100,65,333,-176
3927655303,4328,464,16488,99,295,-278
3927657001,3436,904,16540,5,152,-161
3927658674,3160,1256,16424,6,215,-237
3927660344,3260,1724,16508,-4,201,-158
3927662025,3424,1080,16436,-55,33,119
3927663709,3740,556,16344,-109,59,92
3927665391,3780,4,16348,-73,117,32
3927667071,3824,748,16204,9,71,-120
3927668753,3876,780,16668,-75,-9,82
3927670489,4264,60,16316,-1,180,63
3927672193,3932,-420,16064,81,181,-53
3927673904,4028,-344,16196,175,133,-293
3927675610,3560,988,16240,92,206,-249
3927677317,3300,1172,16404,97,221,-131
3927679024,3512,2068,16276,-6,49,-61
3927680761,3732,1376,16128,-122,-4,96
3927682477,3696,648,16220,-13,106,12
3927684195,3744,720,16228,-13,42,12
3927685911,3780,612,16380,-25,-23,-23
3927687650,3560,528,16320,-45,79,46
3927689387,3908,408,16044,58,42,-84
3927691180,4284,964,16088,17,14,-129
3927692882,4740,848,15852,-54,149,-83
3927694583,3560,912,16240,73,224,-302
3927696286,2860,964,16684,61,37,-288
3927697981,3156,1088,16552,-54,-64,-79
3927699673,4156,1748,16332,-142,158,28
3927701427,4020,800,16528,-140,-54,-23
3927703138,3752,904,16620,-145,-164,-50
3927704862,4140,464,15896,-159,18,31
3927706584,3776,944,16176,-78,124,-109
3927708301,3908,804,16140,-119,56,2
3927710014,3912,396,15964,-120,24,-77
3927711752,4308,556,16100,-69,86,-73
3927713463,4460,608,16232,-44,77,-235
3927715183,4280,920,16220,-75,123,-175
3927716905,3604,564,16076,-19,187,-216
3927718620,3612,1744,16588,-85,22,-191
3927720333,3864,928,16344,-163,-13,97
3927722069,3928,484,15960,-146,69,87
3927723781,3960,268,15988,-115,35,-69
3927725501,4324,860,15772,-105,-11,-147
3927727218,4428,1240,15896,-154,77,-68
3927728930,4976,424,15648,-138,213,156
3927730676,4128,-372,16136,-77,189,-118
3927732471,3720,-500,16412,42,210,-279
3927734305,3844,1124,16328,63,208,-245
3927736042,3820,1244,16456,20,126,-130
3927737745,4040,1740,15992,-46,141,0
3927739443,4260,744,16152,-97,217,68
3927741139,4244,564,16108,-50,192,-61
3927742899,3768,1088,16204,-61,65,-146
3927744616,3560,808,16076,-113,217,58
3927746335,3652,360,16320,-110,150,100
3927748080,3688,-88,16420,-68,84,25
3927749798,4396,172,16284,-20,183,-202
3927751508,4592,428,16188,8,281,-90
3927753285,3696,788,16388,50,253,-324
3927755000,3100,1192,16492,24,179,-256
3927756718,3056,1012,16424,-3,187,-58
3927758422,3668,1252,16520,-51,75,67
3927760122,3628,648,16532,-52,-15,81
3927761819,4132,404,16396,-56,117,53
3927763517,3756,96,16296,20,105,-38
3927765235,3696,1604,16360,-27,91,-174
3927766957,3668,1580,16596,-113,116,-8
3927768676,4068,-56,15928,2,147,237
3927770391,3668,-1404,16260,114,97,-172
3927772104,3840,-1008,16392,178,77,-368
3927773816,3572,1420,16344,137,179,-363
3927775538,3380,2052,16284,56,58,60
3927777383,4204,2204,16636,-113,82,-29
3927779217,3580,924,16388,-89,80,99
3927781053,3484,368,16152,-7,19,30
3927782817,3416,524,16604,-60,-40,27
3927784542,3648,636,16312,-76,98,-64
3927786246,3980,368,16148,-9,19,137
3927787921,4536,-96,15900,16,-31,101
3927789594,4308,372,16164,0,136,-369
3927791265,3380,1604,16108,81,137,-289
3927792946,3308,1840,16208,18,87,-168
3927794687,3300,1784,16356,-134,-38,64
3927796395,4132,404,16296,-110,113,-30
3927798120,4160,952,16512,-79,168,-210
3927799842,3836,240,16196,-145,-174,99
3927801561,3536,708,16076,-71,45,-152
3927803274,4244,896,15724,-76,106,14
3927805012,4040,912,16000,-95,77,-56
3927806726,3932,1000,16300,-177,54,-29
3927808437,4468,1208,16120,-111,126,-116
3927810148,4176,704,16200,-164,46,59
3927811858,4064,-328,16144,-143,73,-9
3927813575,3480,16,16348,18,211,-352
3927815320,3564,560,16616,2,27,-178
3927817036,3456,844,16488,-20,-7,-188
3927818746,3784,1324,16380,-108,-15,52
3927820456,4288,1344,15572,-128,50,-95
3927822164,4816,1520,15620,-200,58,64
3927823873,5028,980,15704,-247,154,76
3927826640,4104,-644,16040,-127,167,64
3927828368,3596,-776,16520,15,189,-238
3927830078,3572,-232,16696,33,220,-253
3927831787,4020,584,16448,127,175,-159
3927833495,4484,1748,16084,29,102,-121
3927835204,4316,1116,16072,-49,194,-73
3927836978,3856,1184,16172,-38,289,-139
3927838681,3660,1400,16212,-56,89,-64
3927840376,3608,1440,16188,-172,84,8
3927842069,3804,208,16172,-169,116,229
3927843764,4144,-332,16128,-92,89,145
3927845463,4636,-628,16220,-36,127,-68
3927847182,4556,-160,16368,71,407,-350
3927848877,3892,844,16440,133,406,-355
3927850593,2944,944,16588,58,141,-135
3927852303,2964,1544,16396,-11,128,-102
3927854003,3320,1376,16468,-36,187,5
3927855697,4216,1372,15896,-22,116,45
3927857462,3940,824,16704,-107,26,22
3927859177,3408,588,16384,-37,137,-68
3927860895,3036,780,16712,-39,104,-55
3927862606,3592,140,16308,-58,-45,165
3927864316,4164,-968,16208,16,130,47
3927866025,4220,-1064,16060,233,214,-347
3927867758,4424,264,16324,222,201,-454
3927869470,3724,1912,16000,81,138,-153
3927871177,3440,2280,16196,24,203,-80
3927872886,3548,2484,16448,-49,173,-1
3927874594,3584,996,16164,-98,-43,104
3927876301,3600,492,16384,-59,53,42
3927878033,3956,356,16220,48,54,-64
3927879742,3812,920,16676,-22,9,-64
3927881451,3776,364,16228,-43,-6,99
3927883159,4384,288,16040,32,100,-92
3927884866,4376,512,15884,48,62,-211
3927886575,3824,1072,16056,47,100,-296
3927888293,3344,1772,16364,-32,185,-171
3927889998,3332,1008,16420,-41,-18,8
3927891693,3948,1068,16292,-89,0,-40
3927893386,3820,1064,16704,-185,67,-45
3927895075,4004,892,16512,-111,22,-73
3927896773,3756,952,16304,-92,-63,-31
3927898530,3932,752,15852,-109,4,15
3927900236,3572,920,16132,-144,154,1
3927901946,4396,868,15812,-96,-17,-86
3927903656,4268,1104,15840,-122,-29,-64
3927905364,4320,-188,16164,-173,121,51
3927907074,4236,72,16328,-18,177,-339
3927908806,3900,716,16268,-17,123,-347
3927910516,3664,1160,16136,-15,118,-203
3927912226,3672,1468,16664,-130,94,-33
3927913932,3816,700,16236,-133,-54,-26
3927915638,3720,904,16268,-146,-17,-74
3927917348,4464,520,15696,-135,80,69
3927919080,4320,1080,15740,-94,90,-95
3927920789,4408,1072,15740,-150,52,39
3927922496,4688,128,16008,-114,179,50
3927924206,4112,-480,16488,-27,273,-103
3927925912,3764,288,16524,73,167,-331
3927927621,3800,876,16600,30,134,-209
3927929354,3712,900,16172,-3,205,-19
3927931064,3892,1192,16428,-14,140,-95
3927932773,4192,1272,16072,-54,85,-104
3927934481,4400,1288,16024,-109,182,-98
3927936190,3844,896,16036,-98,133,22
3927937896,3548,468,16136,-127,91,-9
3927939628,3400,300,16252,-141,141,-10
3927941337,3836,-172,16316,-14,172,7
3927943045,4144,428,16408,12,133,-141
3927944770,4396,476,16392,2,141,-84
3927946491,4204,792,16000,40,342,-200
3927948205,3272,792,16348,38,215,-163
3927949928,3092,1384,16340,-21,113,-136
3927951642,3052,1376,16484,-86,128,18
3927953354,3568,492,16272,-20,91,160
3927955090,3864,124,16344,-14,13,-2
3927956820,4068,140,16056,12,144,-81
3927958542,3852,592,16368,33,171,-137
3927960255,3584,1392,16700,-50,29,-21
3927961966,4128,376,16384,-48,130,76
3927963677,3900,-96,16000,22,196,19
3927965397,3812,-752,16324,151,131,-270
3927967116,3384,1104,16324,90,75,-345
3927968830,3088,1448,16544,91,131,-12
3927970572,3388,1904,16292,80,79,8
3927972284,3856,1640,16432,-77,-42,14
3927973991,3920,1340,16220,-113,83,13
3927975708,3952,1116,16380,-70,121,72
3927977428,3452,-20,16340,-58,1,46
3927979139,3384,216,16268,-71,39,-139
3927980872,3936,292,16152,36,72,9
3927982582,4424,392,16112,36,20,7
3927984306,4888,232,15936,-6,89,-210
3927986029,3576,1800,15944,1,193,-454
3927987752,2664,1460,16608,-25,3,-28
3927989469,3220,1464,16408,-84,-39,51
3927991205,3800,800,16336,-178,48,28
3927992924,3904,552,16456,-60,26,-41
3927994638,4344,748,16388,-66,-102,-35
3927996348,4172,716,15844,-123,-13,-14
3927999189,3908,944,16200,-104,131,-23
3928000938,3808,860,16176,-131,32,-81
3928002739,4036,1124,16296,-160,123,-125
3928004443,4156,868,16120,-98,125,-44
3928006132,3880,-100,16076,-97,12,-53
3928007815,3692,-188,16264,-62,104,-304
3928009505,3796,560,16500,-22,169,-369
3928011190,3604,1272,16472,-10,-20,-42
3928012926,4096,1052,15960,-136,-91,-23
3928014625,4452,1432,15788,-166,49,-53
3928016327,4572,1484,15520,-128,164,-21
3928018023,4728,1272,15936,-211,133,86
3928019727,4268,-244,16136,-199,194,7
3928021427,3944,-488,16328,-113,241,-79
3928023144,3524,-828,16452,9,142,-82
3928024848,3736,-340,16336,79,157,-233
3928026548,3792,520,16128,115,204,-301
3928028246,4616,1664,15852,96,129,-153
3928030012,4300,1440,16044,-71,143,-69
3928031865,3320,1088,16300,-84,197,-65
3928033704,3096,1468,16272,-124,81,-41
3928035481,3240,1412,16136,-179,33,103
3928037178,3796,200,16328,-183,123,144
3928038848,4608,-496,15900,-14,126,77
3928040514,5004,-752,15860,30,178,-148
3928042180,4256,220,16396,60,332,-310
3928043903,3144,924,16436,108,296,-237
3928045618,2708,1448,16560,19,100,-78
3928047350,3136,1480,16328,-8,30,27
3928049065,3712,1196,16308,-27,108,48
3928050799,4420,1008,16648,-62,98,35
3928052525,4264,772,16624,-125,41,-33
3928054257,3168,1000,16600,-137,87,-55
3928055972,3432,-72,16472,-69,-6,142
3928057740,3940,-736,16188,-7,25,40
3928059443,4096,-1420,16000,72,126,-59
3928061154,4392,-80,16124,293,260,-467
3928062864,4288,1648,15732,138,86,-202
3928064566,3676,2560,16256,-23,232,-159
3928066272,3676,2740,16492,-72,250,-19
3928067982,2964,832,16552,-65,-21,127
3928069728,2856,300,16688,-52,-63,3
3928071439,3168,316,16824,-63,-43,-5
3928073146,3820,828,16344,12,38,46
3928074885,4392,28,15884,-21,27,113
3928076596,4652,176,16028,-31,95,-183
3928078305,4116,280,16108,6,151,-232
3928080041,3344,1056,15780,88,146,-352
3928081752,3148,2192,16460,-59,81,-161
3928083461,3196,1828,16456,-91,51,-17
3928085193,4668,888,16052,-70,59,126
3928086910,3924,656,16848,-82,75,-353
3928088628,3264,968,16464,-163,0,73
3928090346,3228,752,16456,-65,24,-38
3928092087,3952,1940,16012,-129,-59,134
3928093797,4104,-16,16000,-209,20,117
3928095578,4692,376,15960,-38,100,-102
3928097281,4616,496,15768,-49,50,-157
3928098978,4000,704,16156,-118,107,-123
3928100673,4180,356,16116,-112,224,-133
3928102366,3612,424,16380,-43,192,-217
3928104076,3640,780,16644,-47,30,-221
3928105842,3456,968,16660,-115,32,-148
3928107558,3976,1204,16196,-55,23,-121
3928109276,3832,1236,16092,-94,-36,-57
3928110990,4292,732,15756,-171,-26,81
3928112699,4672,452,15404,-159,170,116
3928114417,4644,116,15504,-101,181,7
3928116165,4708,820,15856,-116,237,-101
3928117880,3932,-300,16584,-32,274,0
3928119590,3364,-232,16804,25,149,-208
3928121300,3344,192,16728,6,116,-268
3928123008,3668,968,16428,54,198,-155
3928124725,4036,1364,16072,-9,91,-26
3928126597,5036,1452,15760,-112,57,-114
3928128399,4244,1508,15884,-119,259,-77
3928130137,3508,860,15980,-89,186,63
3928131855,3148,148,16372,-91,98,-61
3928133561,3500,252,16696,-90,174,-74
3928135267,3576,376,16348,-21,216,-33
3928136972,3972,80,16272,24,104,67
3928138668,4932,652,16360,14,235,-260
3928140361,4544,1308,16492,-10,352,-286
3928142056,3308,856,16296,32,219,-25
3928143750,2792,608,16492,-23,47,-87
3928145462,3040,1036,16284,-45,126,-52
3928147239,3232,800,16440,21,82,62
3928148950,4300,220,16560,-40,15,129
3928150664,4364,292,16224,-43,125,-197
3928152375,3384,1152,16728,4,175,-178
3928154083,3572,1116,16248,17,41,4
3928155791,3992,448,16424,-67,79,73
3928157505,3564,-616,16212,101,228,-168
3928159225,3656,-184,16332,200,220,-271
3928160938,3484,764,16284,106,-5,-163
3928162648,3740,2080,16084,19,126,-90
3928164357,4112,1760,16140,-21,107,120
3928166066,4016,1296,16300,-47,13,92
3928167801,3512,568,16688,-88,10,-63
3928169512,3560,940,16408,4,83,-30
3928172091,3436,568,16560,-71,16,16
3928173816,3672,124,16320,-78,15,-30
3928175529,4408,504,15876,34,81,-101
3928177237,4808,460,15644,29,74,-79
3928178946,3812,612,16184,13,136,-405
3928180645,3000,1940,16476,-7,131,-223
3928182339,3396,1836,16200,-33,-73,42
3928184061,3800,1676,16296,-121,-73,160
3928185759,4244,380,16668,-174,79,4
3928187510,4144,976,16124,-108,2,-12
3928189309,3892,436,15924,-83,-1,2
3928191058,3884,672,16080,-88,56,-54
3928192770,4000,392,15828,-121,152,-44
3928194701,4092,848,16012,-71,49,-148
3928196414,4228,772,16168,-119,54,-100
3928198114,4272,608,16276,-131,147,-133
3928199871,3888,596,16232,-70,112,-125
3928201589,3644,656,16560,-26,32,-297
3928203307,3572,1332,16380,-117,66,-51
3928205024,3648,800,16440,-81,45,65
3928206740,3944,936,16088,-91,-41,-24
3928208450,4068,808,15724,-125,42,-58
3928210189,4332,1328,15584,-102,142,-81
3928211903,4904,1084,15792,-212,140,143
3928213615,4284,-568,16208,-135,186,49
3928215327,3864,-768,16412,-15,262,-195
3928217039,3652,-580,16456,82,201,-268
3928218748,3880,668,16460,55,118,-267
3928220481,3836,1092,16316,-20,184,-67
3928222193,4372,1224,15764,16,242,-74
3928223901,4404,1348,16128,-61,113,-35
3928225612,3840,948,16360,-66,142,-171
3928227317,3304,1516,16184,-102,182,-14
3928229034,3212,876,16240,-100,102,99
3928230775,3652,780,16364,-126,65,74
3928232492,4424,-548,16180,-50,142,45
3928234210,4848,160,15992,39,300,-178
3928235927,4324,196,16092,50,263,-204
3928237638,3028,568,16456,68,293,-296
3928239346,2660,1312,16356,38,173,-129
3928241127,2904,1440,16264,27,53,-19
3928242833,3696,1124,16536,-65,60,103
3928244534,4112,216,16440,-35,105,33
3928246228,3912,1132,16176,-74,75,-211
3928247923,3448,1304,16256,-112,42,-100
3928249616,3508,932,16728,-118,146,65
3928251368,3832,-392,15968,-41,10,180
3928253075,3756,-1592,16124,83,-10,81
3928254799,4228,-904,16468,232,228,-453
3928256522,3856,1248,16236,201,119,-290
3928258234,3760,2816,16364,8,179,-96
3928259944,3772,2884,16552,-56,117,50
3928261681,3540,1288,16704,-130,120,114
3928263396,2680,-44,16524,-23,-24,-44
3928265108,2792,88,16636,19,-80,-152
3928266817,3656,1184,16448,-108,-4,13
3928268525,4516,340,15980,-71,17,266
3928270232,4856,-76,16276,-4,53,-151
3928271964,4388,-164,16264,20,47,-272
3928273707,3208,1020,15776,142,158,-455
3928275420,3232,2264,16384,-20,76,-134
3928277131,3296,1772,16404,-117,-46,114
3928278839,4320,892,15856,-108,60,238
3928280549,4600,580,16584,-51,160,-365
3928282281,3312,1300,16652,-186,-175,93
3928283993,3420,332,16452,-154,-48,156
3928285741,3536,1616,15812,-62,78,-3
3928287460,3972,276,15956,-165,-35,127
3928289177,4724,624,15612,-127,60,-77
3928290889,5124,784,15876,-123,89,-46
3928292681,4276,428,16012,-75,156,-246
3928294385,3808,460,16172,-148,135,-140
3928296089,3632,756,16476,-19,186,-328
3928297784,3208,1404,16576,-40,93,-249
3928299477,3456,668,16864,-96,-13,-61
3928301170,3812,1324,16192,-56,14,-75
3928302922,3960,1008,16252,-65,-31,-15
3928304633,4424,1384,15740,-156,-4,-63
3928306346,5004,840,15468,-246,134,267
3928308082,4704,-408,15688,-118,268,2
3928309793,4532,-184,15968,-66,232,-114
3928311503,3908,-348,16412,37,212,-223
3928313236,3420,636,16728,16,245,-156
3928314945,3328,464,16624,-29,161,-98
3928316654,3828,1080,16424,14,112,-226
3928318363,4088,1156,16156,-65,122,8
3928320075,4648,1204,16040,-33,122,-179
3928321784,4632,1648,15952,-86,127,-185
3928323516,3692,912,15828,-138,176,-1
3928325228,3496,324,15880,-104,162,102
3928326937,3456,-232,16140,-102,115,52
3928328649,3980,360,16448,-7,144,-135
3928330358,4204,132,16372,12,250,84
3928332093,4288,456,16592,61,214,-236
3928333864,3812,1068,16492,42,184,-310
3928335567,3136,1096,16556,5,208,-110
3928337265,3332,1256,16320,-70,76,81
3928338960,3244,636,16228,-101,43,75
3928340652,3452,460,16224,-32,94,-132
3928342343,3984,368,16244,-15,57,75
3928345144,3884,1160,16456,-48,114,-120
3928346900,3692,772,16748,-61,103,-16
3928348618,3972,256,16396,72,88,51
3928350330,4120,-496,16288,86,124,-156
3928352076,3960,1044,16424,88,270,-312
3928353792,3492,1208,16560,75,219,-103
3928355521,3164,1156,16132,71,-3,31
3928357226,3612,1468,16384,-55,23,-74
3928358922,4004,1212,16404,2,97,70
3928360625,3776,816,16320,-17,56,97
3928362326,3592,500,16176,-36,-69,-17
3928364048,3656,652,16576,-68,121,-114
3928365765,3512,600,16376,-21,104,-31
3928367482,3856,380,16364,-18,3,-60
3928369192,4184,1104,15888,-29,87,-182
3928370912,4548,1036,15960,56,166,-194
3928372628,3800,1160,16332,38,131,-210
3928374369,2868,1220,16812,-16,-7,-200
3928376089,3428,1820,16384,-98,81,9
3928377804,3832,1712,16148,-137,32,154
3928379515,4032,384,16408,-150,-49,74
3928381231,4128,708,15852,-120,32,-80
3928382944,3904,752,16048,-46,83,-55
3928384723,3860,876,16220,-99,46,-22
3928386430,4060,288,16024,-172,21,-22
3928388131,3940,800,15772,-81,116,-202
3928389823,4264,732,15916,-97,71,-89
3928391534,4300,320,16396,-104,77,-175
3928393239,3952,684,16228,-62,156,-209
3928394990,3660,1384,16052,-28,81,-248
3928396723,3564,1740,16492,-98,16,-121
3928398458,3768,748,16300,-170,35,64
3928400177,3980,696,16208,-97,52,25
3928401891,4200,640,15660,-87,-9,-2
3928403601,4252,760,15964,-131,32,-20
3928405384,4588,828,15800,-136,192,64
3928407087,4480,16,16176,-71,161,-31
3928408791,4268,-176,16204,-72,156,-116
3928410484,3844,-452,16284,-14,224,-239
3928412178,3532,816,16396,69,192,-283
3928413869,3952,1124,16200,-11,82,-81
3928415619,4024,1264,16096,-66,153,-115
3928417324,4096,1020,16276,-70,194,-9
3928419035,3904,980,16164,-43,58,-83
3928420744,3756,1088,16140,-84,74,-62
3928422451,3756,904,15944,-102,213,16
3928424161,3716,568,16348,-76,146,95
3928425933,4100,-356,16300,-35,78,-24
3928427634,4256,88,16276,-19,167,-159
3928429330,4324,552,16316,62,303,-153
3928431024,3552,704,16364,57,203,-210
3928432716,3116,804,16340,-13,169,-181
3928434408,3108,988,16396,-6,192,-106
3928436159,3512,1304,16340,-42,67,67
3928437860,4028,64,16504,-50,48,53
3928439641,4000,152,16420,-24,135,-100
3928441460,3500,720,16200,25,64,-121
3928443217,3792,1628,16604,-84,70,-17
3928444937,3936,320,15964,-101,125,194
3928446745,3700,-1112,16288,117,109,-45
3928448440,3932,-992,16252,162,68,-220
3928450121,3876,496,16452,141,180,-330
3928451803,3452,2156,16012,98,186,-123
3928453484,3524,2220,16456,50,68,35
3928455163,4360,2244,16460,-143,101,30
3928456900,3352,160,16312,-96,119,76
3928458600,3212,-168,16360,5,69,-90
3928460311,3120,544,16804,-70,-83,-41
3928462021,3700,712,16296,-68,73,-22
3928463731,4544,520,16216,8,44,42
3928465439,5076,316,16024,5,42,-42
3928467173,3908,888,15832,36,80,-355
3928468883,3140,1584,16296,64,180,-303
3928470589,3124,2292,16560,-5,117,-193
3928472373,3616,1560,16348,-141,-93,296
3928474171,4484,-124,16320,-112,208,-80
3928475926,3708,1092,16720,-84,-66,-176
3928477740,3664,472,16028,-58,-66,-25
3928479451,3596,1120,15900,-72,68,-100
3928481151,3840,772,16196,-138,131,41
3928482848,3516,960,16276,-133,-29,-114
3928484543,3956,972,15860,-137,-100,-8
3928486237,4636,712,15988,-133,194,-181
3928488045,4296,284,16316,-144,97,-1
3928489768,3720,-12,16252,-8,141,-309
3928491483,3376,668,16316,-5,159,-277
3928493197,3636,1024,16512,-18,70,-186
3928494953,3604,1512,16696,-105,-73,70
3928496735,4032,644,15740,-96,57,31
3928498520,4176,864,15664,-88,83,-115
3928500267,4732,1396,15676,-182,30,19
3928501965,4704,364,15784,-235,220,131
3928503662,4156,-772,16232,-117,243,6
3928505363,3984,-1060,16364,-26,195,-216
3928507058,3732,312,16488,31,123,-266
3928508753,3752,324,16424,68,217,-141
3928510458,3980,1208,16184,98,210,-248
3928512165,4152,1572,16192,-35,84,-60
3928513881,4056,1548,16012,-44,219,-115
3928515589,3992,1328,16180,-86,102,-8
3928518136,3648,1568,16036,-148,91,38
3928519876,3744,-24,16036,-148,150,247
3928521652,4128,-484,16172,-10,158,-89
3928523467,4164,-172,16204,28,161,-184
3928525290,4160,216,16340,69,318,-146
3928527117,3712,756,16480,33,264,-137
3928528917,3296,900,16396,28,136,-248
3928530697,3332,1680,16320,-51,163,-14
3928532404,3504,1232,16164,-69,160,140
3928534082,3580,1048,16464,-63,54,-10
3928535786,3548,424,16392,-90,24,-15
3928537491,3540,460,16160,-72,91,-41
3928539175,3772,648,16568,-96,85,46
3928540889,4292,320,16056,4,61,22
3928542607,4112,-656,16012,70,226,36
3928544309,4244,-932,16140,155,209,-127
3928546004,3716,944,16340,146,164,-404
3928547696,3096,1560,16456,55,159,-49
3928549400,3264,1828,16292,43,139,37
3928551106,3628,1244,16608,-101,27,103
3928552801,3828,928,16284,-49,29,-98
3928554482,3476,528,16648,-47,47,82
3928556162,3712,228,16264,-16,26,41
3928557845,3452,692,16456,-63,-23,-61
3928559532,4024,416,16324,-1,52,-21
3928561244,4404,712,15980,53,99,-60
3928562934,4732,940,15832,25,139,-179
3928564614,3892,1484,16116,28,166,-289
3928566293,3224,1516,16428,-6,175,-159
3928567972,3152,968,16440,-14,-41,19
3928569693,3984,1236,16064,-136,37,-72
3928571394,4204,1388,16476,-132,163,-37
3928573077,3800,928,16556,-56,-27,3
3928574767,3808,808,15944,-151,-109,7
3928576447,3772,912,16124,-141,164,-147
3928578130,3732,1116,16292,-132,164,-12
3928579808,3916,-12,15724,-119,-36,-11
3928581514,4216,640,15760,-131,65,-183
3928583201,4520,460,16236,-92,143,-118
3928584896,4256,456,16444,-13,120,-156
3928586575,3568,336,16512,-73,78,-277
3928588247,3624,1156,16112,-61,150,-369
3928589940,3712,2088,16528,-116,60,39
3928591652,3836,580,16156,-159,-41,182
3928593335,3704,128,16220,-166,11,8
3928595018,4028,532,15784,-51,111,-143
3928596708,4504,1068,15692,-69,-14,-4
3928598378,4736,1000,15584,-200,23,98
3928600086,4740,204,15756,-184,253,11
3928601800,4120,-380,16272,-14,231,-113
3928603477,3820,-408,16240,47,151,-303
3928605186,3684,544,16460,30,205,-402
3928606890,3664,1328,16472,44,224,-99
3928608599,3756,1556,15944,-26,95,21
3928610295,4156,1184,15920,-117,104,66
3928612045,4524,1176,15820,-74,227,-142
3928613736,4000,1260,16032,-78,137,64
3928615419,3452,272,15836,-93,106,60
3928617109,3276,216,16624,-121,146,-28
3928618788,3472,140,16596,13,180,-68
3928620482,4240,472,16328,25,91,-36
3928622294,4456,328,16184,-35,282,-85
3928623996,4416,552,16304,34,342,-229
3928625728,3296,1092,16420,12,148,-203
3928627401,3048,916,16424,-69,131,-153
3928629041,3128,1408,16488,-94,195,-82
3928630675,3288,604,16524,-19,39,125
3928632371,4308,76,16332,-18,-10,51
3928634052,4336,-104,16244,-37,124,-53
3928635753,3728,880,16280,61,177,-193
3928637456,3660,1764,16456,-72,53,54
3928639154,3652,996,16440,-110,52,149
3928640850,4064,-276,15964,9,177,45
3928642606,3724,-1032,16296,205,96,-267
3928644315,3776,864,16408,87,92,-327
3928646078,3540,1392,16136,38,149,-128
3928647868,3628,2056,16344,43,87,-29
3928649649,4056,1868,16280,-148,-14,93
3928651396,3728,636,16372,-61,108,-53
3928653244,3204,376,16820,-18,-33,-3
3928654976,3300,256,16440,-18,-52,2
3928656694,3528,560,16116,-86,75,21
3928658441,4528,460,16156,40,85,-65
3928660173,4856,820,16168,9,41,-119
3928661893,4040,408,16144,-19,73,-182
3928663639,3096,1432,16248,48,169,-323
3928665388,3016,2168,16500,-25,-36,-74
3928667144,3520,1548,16420,-104,-73,191
3928668881,4320,464,16400,-162,164,16
3928670607,4064,144,16492,-107,-83,-99
3928672362,3688,644,16272,-74,-73,-123
3928674157,4116,684,16140,-86,155,-27
3928675925,4088,1084,16060,-76,202,-143
3928677681,3452,1128,16200,-139,-23,-60
3928679421,4300,1328,16188,-163,53,-61
3928681106,4456,1312,16160,-166,126,-35
3928682754,4388,156,16032,-111,78,-29
3928684414,3744,-40,16408,-75,137,-222
3928686089,3528,-20,16372,-32,169,-201
3928687775,3428,764,16420,3,89,-219
3928690402,3928,1252,16080,-92,-55,33
3928692170,4156,1208,15892,-115,62,2
3928693864,4572,1232,15744,-142,74,-29
3928695555,5108,1124,15632,-242,148,-7
3928697260,4160,-504,15980,-183,226,158
3928698958,3940,-1276,16096,-87,245,17
3928700651,3592,-536,16428,33,167,-322
3928702344,3916,416,16280,101,162,-214
3928704073,3972,988,16320,102,204,-164
3928705774,4364,1600,16112,21,156,-67
3928707482,4080,1684,16296,-71,184,-124
3928709194,3560,1212,16220,-69,137,21
3928710906,3528,1180,16172,-69,115,-35
3928712636,3156,1216,16460,-170,63,41
3928714360,3964,196,16236,-150,87,222
3928716095,4324,-408,15876,-86,105,202
3928717819,5032,-740,15884,17,230,-161
3928719532,3988,404,16372,82,368,-391
3928721243,3040,728,16444,114,266,-153
3928722954,2844,1248,16552,74,153,-228
3928724669,2960,1924,16560,-59,60,-32
3928726406,4220,1360,16052,-47,179,158
3928728121,4128,512,16664,-99,82,-1
3928729831,4048,448,16432,-81,4,-128
3928731541,3172,1284,16672,-130,87,-75
3928733251,3504,64,16368,-55,-10,223
3928734956,4080,-312,15952,-29,18,161
3928736693,4144,-1312,15888,130,135,-147
3928738417,4784,-68,15968,269,270,-394
3928740132,3752,1784,15904,106,125,-257
3928741848,3604,2160,16168,27,194,-130
3928743566,3508,2808,16316,-63,211,54
3928745277,3324,556,16460,-107,-46,186
3928747235,3040,420,16496,-35,3,-79
3928749083,3660,216,16468,36,-12,6
3928750835,3892,652,16176,22,-29,23
3928752542,3996,116,16140,-25,-21,58
3928754246,4496,880,16092,13,141,-192
3928755944,4152,952,16012,36,122,-168
3928757676,3640,840,15824,58,127,-199
3928759377,3136,1892,16472,-48,162,-303
3928761076,3416,1392,16344,-20,-44,103
3928762770,4316,900,16372,-72,-14,120
3928764465,4112,856,16776,-181,103,-178
3928766158,3588,1000,16128,-144,11,-16
3928767923,3108,760,16524,-71,-64,-1
3928769634,4052,760,15940,-122,-51,127
3928771348,3744,716,16228,-193,178,-102
3928773060,4128,596,15740,-46,35,-61
3928774770,4508,944,15664,-62,-40,-42
3928776478,4288,244,16176,-157,59,-16
3928778218,4368,396,16236,-49,278,-313
3928780053,3636,884,16276,-27,50,-164
3928781815,3552,800,16184,-43,20,-145
3928783530,3480,1384,16680,-130,100,-134
3928785275,3784,900,16320,-86,-10,45
3928787058,3848,508,15864,-157,-22,38
3928788802,4024,396,15796,-167,42,25
3928790487,4428,780,15684,-77,150,-103
3928792171,4568,680,15588,-129,98,86
3928793847,4644,240,15920,-139,168,4
3928795520,3992,-136,16496,-44,289,-112
3928797225,3480,-268,16696,84,135,-231
3928798977,3612,964,16632,-8,133,-236
3928800684,3732,1204,16296,-36,187,-139
3928802406,3940,1712,16108,-8,145,32
3928804120,4720,780,15952,-97,77,18
3928805833,4728,716,15840,-108,158,-118
3928807543,3856,1304,16120,-77,245,-105
3928809279,3528,520,16072,-90,98,92
3928810990,3292,128,16496,-152,139,30
3928812703,3320,-96,16464,-67,184,-32
3928814417,4236,520,16364,47,164,-95
3928816129,4776,488,16204,-14,151,-71
3928817913,3628,796,16488,8,331,-313
3928819774,3276,1076,16272,36,254,-172
3928821485,3144,1104,16240,9,84,-48
3928823205,3264,876,16308,-95,115,36
3928824953,3872,676,16284,11,110,18
3928826715,3936,444,16392,-7,23,57
3928828482,4096,48,15992,-13,19,-35
3928830296,3580,1208,16600,5,237,-245
3928831991,4008,1340,16188,-15,42,124
3928833704,4092,488,16212,-39,20,193
3928835395,3996,-672,16200,-3,181,-67
3928837086,3920,-16,16592,176,158,-352
3928838772,3552,624,16308,120,83,-293
3928840454,3316,1284,16068,44,97,-34
3928842195,3576,2092,16120,7,104,3
3928843898,4008,1508,16192,-59,-16,70
3928845619,4088,1220,16188,-86,20,1
3928847339,3920,720,16412,-96,136,17
3928849052,3584,588,16220,-37,59,-58
3928850790,3284,652,16444,-78,1,23
3928852585,3620,-64,16352,-68,60,1
3928854301,4144,332,16212,55,59,-106
3928856030,4484,660,15796,47,69,-281
3928857731,4276,1468,16012,24,129,-387
3928859425,2856,1716,16568,-48,137,-125
3928861118,3308,1312,16620,-83,-39,59
3928863594,4092,328,16400,-171,-16,94
3928865314,4032,532,16284,-86,50,-114
3928867028,4196,756,15728,-61,-56,2
3928868751,4068,816,15760,-78,6,-25
3928870478,3984,768,16232,-149,195,-56
3928872197,4036,1168,16000,-95,62,-155
3928873976,4100,1344,16336,-167,18,-42
3928875683,4168,824,16156,-164,76,10
3928877386,3928,8,16640,-91,99,-68
3928879082,3944,-192,16212,2,51,-261
3928880776,3880,804,16284,-17,111,-263
3928882468,3584,1060,16540,-26,119,-141
3928884171,3940,1108,16160,-78,-89,18
3928885875,4344,1224,15808,-161,-5,30
3928887597,4660,1232,15612,-193,135,0
3928889316,4796,1264,15952,-158,238,-51
3928891025,4188,160,16184,-174,131,57
3928892736,3784,-688,16400,-126,194,-32
3928894447,3584,-780,16576,-32,224,-107
3928896158,3608,-176,16544,99,130,-246
3928897865,4444,1216,16104,57,128,-149
3928899573,4728,1216,15884,3,218,-89
3928901284,4360,1416,16120,13,263,-173
3928902993,3408,1332,16140,-49,76,-92
3928904702,3352,1208,16296,-122,105,-50
3928906411,3460,1380,16252,-174,204,17
3928908120,3516,468,16372,-134,34,147
3928909829,4468,-416,15908,-120,34,128
3928911538,5224,-776,15872,-60,246,-63
3928913247,4336,324,16216,107,375,-405
3928914986,3084,652,16500,98,213,-167
3928916698,2692,1240,16228,22,207,-146
3928918408,2848,1320,16396,19,141,-112
3928920119,3700,1664,16256,25,10,5
3928921831,4688,1068,16584,-144,130,182
3928923538,4264,504,16448,-124,186,26
3928925273,2976,948,16644,-39,21,-175
3928926983,3164,460,16744,-128,-79,164
3928928691,4084,-492,16312,-55,158,129
3928930399,4060,-1316,16012,69,155,9
3928932108,4364,-608,15896,259,111,-440
3928933815,4132,1160,15876,112,136,-206
3928935547,4164,1932,15792,111,251,-166
3928937257,3240,2840,16628,-14,152,-122
3928938966,3160,1444,16680,-132,12,170
3928940674,3084,204,16392,-47,42,57
3928942383,3228,184,16916,5,-12,-57
3928944092,3956,1112,16524,-43,-80,31
3928945822,4332,32,16156,-100,100,246
3928947532,4504,-332,15956,13,126,14
3928949267,4192,304,16212,66,-6,-262
3928951002,3284,596,15764,57,148,-238
3928952713,3288,1932,16472,-13,214,-227
3928954423,3252,1996,16612,-56,45,-133
3928956139,4244,1400,16208,-99,-103,91
3928957810,4224,-68,17056,-128,185,-139
3928959469,3760,668,16640,-68,119,-296
3928961121,3232,724,16296,-124,-104,-15
3928962762,3688,1656,15828,-44,64,-16
3928964402,4160,1732,16044,-108,67,220
3928966044,4072,-60,15732,-153,27,-10
3928967687,4796,1056,15612,-114,89,-127
3928969363,4460,908,16028,-112,133,-73
3928971056,3988,588,16332,-87,111,-80
3928972749,3928,512,16512,-124,86,-207
3928974444,3540,656,16568,-72,149,-253
3928976138,3484,604,16652,-38,81,-130
3928977829,3564,816,16592,-77,-74,-155
3928979532,4032,1320,16252,-99,-71,-157
3928981239,4036,1300,15804,-142,81,48
3928982948,4536,644,15708,-132,45,47
3928984656,4588,428,15596,-164,98,-37
3928986363,4764,564,15560,-128,207,-92
3928988076,4524,740,16088,-66,258,-35
3928989786,3744,-160,16528,-20,153,-91
3928991494,3528,132,16692,-25,207,-179
3928993203,3584,312,16520,22,216,-129
3928994915,3804,640,16264,55,104,-134
3928996624,4164,1212,15812,-41,109,-103
3928998334,4540,1224,16000,-52,181,-71
3929000086,4516,1296,15952,-64,178,-63
3929001803,3508,692,16060,-123,83,-33
3929003515,3388,680,16244,-130,258,-16
3929005228,3428,248,16568,-96,189,63
3929006937,3720,32,16600,-34,84,-57
3929008713,4208,380,16444,-9,196,-100
3929010417,4500,528,16380,44,277,-147
3929012114,4092,1008,16236,6,236,-127
3929013810,3240,676,16316,9,145,-126
3929015506,2992,1092,16460,-30,159,-37
3929017199,3100,948,16396,-9,85,16
3929018952,3500,608,16368,-27,29,30
3929020657,4188,376,16216,-36,104,13
3929022370,4148,224,16200,19,130,-5
3929024083,4052,956,16428,-23,97,-157
3929025794,3940,800,16136,-73,64,-24
3929027501,3788,188,16092,4,196,42
3929029232,3972,-432,16372,48,136,-5
3929030943,3912,76,16400,125,122,-330
3929032652,3208,876,16256,118,158,-198
3929035490,3640,1944,16324,-16,-13,48
3929037244,4160,1728,16212,-52,18,58
3929038954,4216,1308,16296,-77,136,84
3929040671,3788,388,16304,-39,28,27
3929042378,3752,340,16532,-69,14,-34
3929044079,3288,428,16296,-58,104,-65
3929045775,3976,360,16160,24,43,10
3929047466,4572,532,15688,-38,27,-74
3929049159,4652,636,15936,-38,133,-186
3929050909,3680,920,16416,39,217,-375
3929052616,2788,1576,16624,-9,-67,-127
3929054328,3096,1480,16732,-78,-63,-65
3929056064,4092,1644,16288,-159,92,137
3929057774,3940,340,16500,-64,20,-75
3929059483,4068,872,16120,-137,-101,-9
3929061215,4168,780,16116,-136,4,-6
3929062923,4124,1084,16164,-100,118,118
3929064631,4088,-60,15996,-129,24,5
3929066337,3952,724,16228,-114,116,-251
3929068069,4304,1040,16144,-75,129,-170
3929069779,4304,616,16296,-91,61,-29
3929071511,3796,96,16424,-121,134,-219
3929073221,3596,200,16332,-54,197,-337
3929074929,3480,1608,16460,-32,38,-204
3929076706,3820,768,16428,-149,-59,141
3929078515,4068,740,16284,-149,98,-39
3929080276,4068,640,15904,-97,95,-41
3929082076,4420,980,15700,-68,3,-82
3929083772,4832,988,15760,-233,159,84
3929085455,4444,44,16152,-94,260,-5
3929087159,4104,-296,16320,-67,180,21
3929088865,3728,-932,16388,5,147,-196
3929090554,3612,560,16528,97,246,-358
3929092309,3992,1528,16176,56,105,-29
3929094008,4320,1408,16164,-36,92,34
3929095715,4248,972,16052,-127,216,-15
3929097429,3916,944,16180,15,154,-200
3929099141,3548,1412,16164,-42,65,-102
3929100853,3440,704,16280,-160,121,32
3929102583,3616,688,16388,-93,174,82
3929104295,4192,-368,16120,-4,44,21
3929106013,4640,24,15652,-4,148,-105
3929107724,4516,264,16272,18,386,-216
3929109432,3316,972,16352,68,242,-253
3929111139,2824,988,16536,22,115,-126
3929112871,3028,804,16248,-37,172,-73
3929114582,3516,1080,16324,8,96,-17
3929116292,4116,432,16492,-23,18,100
3929118001,4232,364,16376,-62,61,26
3929119709,3556,956,16236,-62,134,-127
3929121419,3576,1252,16660,-92,27,-49
3929123241,3972,-168,16152,-97,9,245
3929124966,3872,-1204,16016,-5,142,89
3929126674,3912,-1220,16220,230,165,-365
3929128381,3844,788,16464,200,98,-384
3929130080,3676,1932,15900,155,128,-249
3929131788,3688,2540,16460,-17,180,28
3929133585,4004,2188,16760,-140,71,86
3929135317,3004,-164,16212,-97,30,125
3929137035,2912,-324,16296,10,91,-51
3929138760,3352,932,16680,-25,-69,-93
3929140469,3940,748,16128,-98,-36,220
3929142164,4600,232,15780,-93,99,215
3929143876,5100,-252,16224,26,100,-197
3929145518,3580,916,15864,97,45,-489
3929147165,2936,1444,15996,46,127,-362
3929148808,3120,2072,16272,-31,155,-98
3929150450,3820,1500,15940,-105,-114,208
3929152091,4664,248,16140,-121,1,199
3929153732,4084,1028,16824,-98,221,-350
3929155374,3508,580,16052,-110,-150,92
3929157060,3280,568,16404,-59,-70,-125
3929158769,3996,1912,16012,-199,84,198
3929160487,4036,-120,16028,-149,91,11
3929162229,4600,768,15556,-77,-61,-106
3929164054,4992,816,15948,-125,32,-93
3929165829,4168,616,15984,-98,215,-90
3929167553,3780,-412,16112,-53,64,-234
3929169265,3288,1044,16476,-34,82,-324
3929170973,3476,1120,16684,-88,88,-115
3929172673,3536,1044,16692,-59,-6,-135
3929174380,4152,1360,16152,-143,-114,7
3929176155,4236,1052,15708,-84,83,-56
3929177879,4628,1396,15588,-137,98,51
3929179598,5024,464,15348,-205,116,99
3929181315,4576,204,15840,-160,307,46
3929183028,4444,-524,16196,-80,323,41
3929184749,3632,-408,16492,85,171,-304
3929186499,3304,484,16608,6,171,-214
3929188218,3764,1140,16248,61,204,-100
3929189929,3852,1508,16372,2,107,-74
3929191641,3980,968,16032,-67,15,-113
3929193358,4288,1572,16112,-100,173,-91
3929195088,3884,740,16232,-100,113,-21
3929196832,3572,900,15752,-101,99,-32
3929198548,3504,36,16100,-154,202,95
3929200262,3848,140,16200,21,143,-52
3929201971,4256,228,16216,10,129,-38
3929203683,4564,312,16232,37,289,-213
3929205413,3884,1320,16396,24,325,-104
3929207980,3148,1100,16376,-6,112,-156
3929209759,3240,1380,16416,-82,144,-89
3929211541,3272,744,16372,0,83,82
3929213348,3952,340,16256,-83,-18,22
3929215111,3856,352,16140,-49,95,-120
3929216839,4012,756,16144,8,169,-137
3929218643,3612,480,16508,-47,39,68
3929220341,4160,332,16044,-25,100,-7
3929222028,4288,-316,16000,106,267,-134
3929223711,3872,20,16208,171,201,-286
3929225398,3432,836,16520,71,98,-151
3929227082,3060,1736,16244,61,148,-148
3929228822,3556,2244,16280,6,123,23
3929230528,3968,1064,16100,-69,-43,158
3929232245,3632,680,16424,-67,79,3
3929233958,3680,556,16448,-20,111,-61
3929235678,3792,796,16264,-18,-21,0
3929237397,3676,316,16284,-81,33,0
3929239136,4040,380,16076,44,140,-91
3929240849,4220,820,16020,41,76,-187
3929242555,4500,804,15912,-8,68,-147
3929244295,3652,1404,16204,-20,225,-261
3929246021,2904,1124,16512,0,11,-125
3929247734,3200,1220,16528,-26,-42,-96
3929249477,4060,1588,16384,-164,75,56
3929251191,4020,964,16500,-113,53,-17
3929252902,3912,964,16424,-122,-105,31
3929254610,3800,280,16088,-113,-79,49
3929256321,3740,704,16252,-103,196,-67
3929258031,3980,640,15892,-99,43,-18
3929259764,4036,592,15968,-97,-27,-66
3929261474,4208,632,16064,-147,89,-72
3929263182,4384,468,16424,-76,157,-198
3929264892,4036,492,16256,-63,114,-209
3929266600,3668,596,16180,-58,98,-251
3929268308,3440,1644,16532,-83,118,-187
3929270040,3708,752,16456,-116,-53,64
3929271750,3848,452,16132,-112,-64,30
3929273458,4136,416,15864,-145,100,-45
3929275167,4352,1276,15704,-52,68,-96
3929276873,4896,1040,15736,-170,28,172
3929278581,4920,328,15600,-174,156,125
3929280289,4140,-496,16432,-65,309,-99
3929281996,3676,-620,16496,85,154,-265
3929283703,3688,76,16596,76,162,-331
3929285411,3764,1276,16580,23,228,-149
3929287137,4116,1484,16024,-18,156,-79
3929288858,4352,788,16020,-112,95,-2
3929290599,4260,596,16056,-90,161,-90
3929292311,3640,1272,16112,-41,139,-133
3929294018,3592,876,15920,-92,94,71
3929295734,3468,728,16304,-128,137,85
3929297453,3760,-76,16468,-47,146,78
3929299168,4516,404,16048,27,94,-136
3929300904,4720,212,16200,-34,288,-65
3929302613,4176,248,16164,33,393,-189
3929304325,3016,760,16520,77,212,-248
3929306036,2844,1116,16368,-15,39,-86
3929307746,3256,1320,16456,-61,90,-1
3929309457,3660,748,16528,-35,103,162
3929311169,4204,-16,16456,-25,24,-33
3929312970,3684,552,16096,-34,111,-136
3929314811,3940,1832,16348,-40,189,-116
3929316576,3504,1424,16952,-107,87,38
3929318295,4072,-172,15980,-32,61,161
3929320055,3636,-1440,16148,170,172,-176
3929321873,4008,448,16488,194,143,-424
3929323562,3684,1508,16492,121,83,-260
3929325234,3372,2028,16340,26,195,58
3929326905,4112,2136,16372,-67,109,-23
3929328573,3808,1752,16340,-120,14,15
3929330240,3380,260,16396,-64,24,15
3929331951,3280,352,16612,-49,44,27
3929333650,3468,240,16400,-60,-20,-1
3929335371,3748,856,15972,-65,-12,5
3929337093,4964,-8,16012,4,153,35
3929338813,4360,564,15940,71,81,-399
3929340533,3624,1164,15976,61,63,-393
3929342264,3092,1976,16220,7,184,-257
3929343972,3376,1952,16500,-104,4,151
3929345740,4416,436,16416,-97,-1,12
3929347465,4376,748,16844,-131,119,-176
3929349181,3680,372,16248,-132,-66,86
3929350888,3256,672,16208,-33,-30,-160
3929352626,3636,1248,15860,-77,2,-86
3929354349,4108,824,16028,-159,171,40
3929356087,3884,808,15936,-140,-41,-55
3929357804,4632,772,15844,-160,47,-166
3929359515,4328,908,15904,-170,178,-150
3929361225,4028,-84,16208,-97,118,-96
3929362958,3600,476,16280,-38,80,-300
3929364678,3592,744,16512,-49,127,-164
3929366399,3336,800,16740,-8,90,-163
3929368116,3820,1176,16456,-77,-111,13
3929369828,4328,1596,15800,-149,44,-58
3929371536,4588,1696,15752,-170,140,49
3929373268,5076,736,15540,-190,126,169
3929374986,4372,-244,15996,-178,162,-39
3929376704,3952,-880,16212,-57,298,-97
3929378416,3768,-672,16424,70,263,-187
3929381265,3712,216,16356,28,116,-165
3929383014,4016,1764,16172,64,210,-209
3929384740,4440,1196,16044,-18,149,-62
3929386452,4108,1484,16220,-39,139,-177
3929388155,3696,1264,16272,-137,100,-42
3929389847,3396,1164,16048,-77,151,-22
3929391539,3500,1020,16140,-151,97,115
3929393233,3988,-20,16132,-130,98,74
3929394944,4620,-188,16232,-5,233,14
3929396713,4524,-224,16316,103,250,-216
3929398423,3888,396,16540,106,245,-335
3929400138,3148,1132,16664,37,266,-164
3929401850,3136,1400,16728,9,140,-89
3929403559,3244,1476,16328,-48,45,-11
3929405278,3896,920,16176,-89,115,12
3929407018,4024,648,16272,-87,91,52
3929408731,3480,352,16196,-43,9,-151
3929410443,3216,948,16456,-68,48,-171
3929412152,3560,476,16604,-52,79,111
3929413859,4288,-192,16364,34,35,98
3929415574,4480,-928,15904,126,195,-239
3929417311,4452,136,15928,177,301,-452
3929419024,3748,1660,16248,105,167,-127
3929420734,3188,1688,16328,14,94,-23
3929422441,3316,1960,16188,-59,127,-18
3929424167,3344,776,16608,-37,45,65
3929425877,3704,688,16380,-19,-50,13
3929427609,3992,292,16372,-53,16,-19
3929429324,3980,628,16316,-17,126,-85
3929431036,3660,280,16292,-27,6,40
3929432780,4056,468,16096,10,15,-185
3929434516,4284,1140,15860,16,173,-176
3929436237,4316,1232,15936,54,174,-198
3929437978,3752,1744,16232,-17,78,-148
3929439689,3148,992,16480,-64,52,-94
3929441399,3480,1216,16688,-64,113,-64
3929443108,4112,1216,16364,-118,30,67
3929444816,3964,708,16272,-157,13,-13
3929446525,4176,884,15896,-74,19,-14
3929448236,4092,728,15996,-48,-30,38
3929449947,3676,768,16212,-149,54,-34
3929451660,3948,644,16048,-138,119,-77
3929453369,4108,872,16084,-87,58,-126
3929455078,4236,420,15856,-148,-23,28
3929456788,4264,192,16412,-108,166,-269
3929458523,3808,436,16504,14,124,-205
3929460236,3724,688,16260,22,67,-259
3929461962,3712,1600,16392,-124,76,-143
3929463834,3904,864,16220,-90,62,19
3929465666,3844,732,16036,-129,-39,65
3929467418,4136,504,15952,-140,-13,52
3929469234,4288,736,15848,-96,130,-84
3929470957,4568,908,15752,-102,69,44
3929472672,4548,44,16168,-147,196,14
3929474368,4336,-224,16396,-134,269,-54
3929476082,3812,-496,16320,46,216,-250
3929477769,3652,780,16468,36,91,-222
3929479520,3884,908,16084,-7,221,-148
3929481222,3972,1472,16132,21,230,-181
3929482933,4308,1316,16060,-64,113,-21
3929484657,3976,1264,15892,-87,158,-76
3929486379,3876,1216,15964,-115,214,-1
3929488118,3648,796,16276,-71,116,-18
3929489875,3808,516,16268,-150,105,144
3929491588,4092,-368,16268,-22,254,17
3929493301,3808,-188,16728,49,195,-142
3929495014,4240,340,16300,29,147,-103
3929496727,3924,556,16316,8,284,-186
3929498437,3124,740,16512,28,236,-173
3929500174,3032,876,16456,-7,137,-165
3929501884,3132,1384,16360,-85,0,29
3929503591,3920,528,16404,-47,153,31
3929505310,3976,644,16376,-17,89,-33
3929507046,3912,36,16284,-5,14,-18
3929508885,3464,1120,16436,16,148,-147
3929510764,4072,1064,16172,-31,82,75
3929512484,4188,140,16220,-29,95,105
3929514212,4112,-592,16004,17,173,7
3929515914,3888,-440,16340,189,162,-378
3929517599,3428,1480,16292,116,52,-245
3929519277,3080,1552,16456,55,83,-39
3929520959,3860,2052,16248,11,118,11
3929522648,4124,1372,16272,-121,-34,4
3929524346,3884,1272,16196,-104,52,-32
3929526042,3764,792,16468,-106,95,105
3929527735,3348,124,16396,-22,36,-59
3929529427,3368,308,16384,-32,4,-49
3929531177,3680,396,16252,4,67,-49
3929532883,4872,660,16036,49,91,-21
3929534594,4472,1024,15888,31,122,-334
3929536303,3124,1840,16328,-36,180,-195
3929538012,2480,1404,16728,0,71,-68
3929539719,3616,980,16488,-97,-56,99
3929541431,3944,660,16340,-146,50,-86
3929543165,3900,568,16476,-131,84,-36
3929544875,4316,680,15916,-82,-58,19
3929546582,4044,456,15800,-106,11,-41
3929548292,3884,1108,16152,-132,198,-86
3929550000,3624,896,16240,-126,126,-34
3929551710,4036,1376,15984,-147,27,-190
3929554263,4308,380,16496,-98,130,-21
3929555983,4152,64,16280,-49,98,-38
3929557737,3936,-256,16176,0,77,-309
3929559448,3828,1488,16392,-56,124,-261
3929561157,3544,1480,16416,-46,97,-54
3929562864,3952,924,15768,-99,-50,117
3929564573,4364,1140,15816,-179,54,-102
3929566270,4696,1444,15824,-145,220,-12
3929567960,4732,1240,15736,-172,171,54
3929569678,4032,-256,16252,-195,84,135
3929571370,3680,-840,16500,-93,242,-141
3929573062,3644,-740,16448,2,240,-140
3929574813,3896,-312,16404,109,102,-262
3929576574,4164,1348,16052,66,175,-267
3929578291,4748,1780,15892,31,230,-98
3929580026,4468,1720,15832,-17,204,-56
3929581738,3408,1060,16212,-85,99,-73
3929583447,3200,1404,16308,-150,181,-61
3929585180,3548,668,16468,-122,32,188
3929586889,3836,296,16084,-128,5,220
3929588597,4588,-564,15964,-87,168,40
3929590307,4824,-188,16048,90,324,-222
3929592044,4408,132,16260,92,288,-269
3929593754,3136,608,16480,61,199,-266
3929595492,2896,1476,16424,50,218,-152
3929597204,3228,1356,16164,-10,30,44
3929598912,3748,1332,16272,-42,-3,10
3929600621,4268,1072,16664,-121,178,19
3929602328,3760,804,16376,-58,73,-48
3929604060,3184,936,16380,-86,31,-36
3929605813,3188,384,16620,-104,6,63
3929607541,4116,-232,16088,-16,123,103
3929609258,4116,-1396,15896,159,100,-106
3929610971,4440,-696,16240,185,156,-336
3929612680,4028,1328,16120,160,196,-280
3929614388,3448,2072,16456,65,138,-117
3929616122,3640,2228,16588,-127,128,67
3929617838,3264,1176,16628,-150,105,118
3929619545,3072,512,16328,-25,19,-24
3929621317,3676,172,16636,-29,-97,18
3929623105,3996,944,16240,-77,128,9
3929624854,3992,376,16468,-48,77,75
3929626600,4280,576,16332,18,12,-131
3929628304,3916,452,16148,-11,79,-187
3929629987,3888,952,15636,63,210,-257
3929631694,3368,1936,16060,12,108,-182
3929633389,3260,1108,16340,-62,-78,23
3929635081,4180,592,16380,-69,156,-18
3929636770,4116,632,16756,-49,138,-201
3929638480,3744,1188,16356,-149,-99,-15
3929640194,3384,700,16056,-155,6,5
3929641907,3816,980,15724,-114,73,-2
3929643617,3896,704,16116,-146,25,-11
3929645339,4176,636,15912,-134,28,-95
3929647057,4300,820,15756,-142,93,15
3929648768,4272,324,16100,-118,97,-9
3929650477,4456,344,16192,-81,115,-168
3929652202,3780,592,16412,-22,210,-338
3929653931,3692,1180,16344,34,169,-274
3929655650,3572,1184,16604,-109,-4,-33
3929657394,3680,872,16408,-137,25,-4
3929659116,3716,660,16000,-76,63,-10
3929660834,4048,600,15824,-63,1,4
3929662544,4532,748,15772,-171,21,-8
3929664263,4508,560,15712,-149,191,-4
3929665984,4644,444,15896,-114,224,-10
3929667764,4364,-148,16340,-100,168,5
3929669472,3908,-376,16428,3,243,-290
3929671178,3564,600,16528,65,208,-242
3929672876,3660,896,16416,63,116,-156
3929674578,3892,1500,16180,-37,125,-30
3929676278,4488,1212,15968,-28,201,-107
3929677994,4536,1640,15988,-99,133,-48
3929679694,4008,1288,16124,-137,89,52
3929681391,3444,276,15988,-130,199,45
3929683085,3384,180,16500,-65,121,-34
3929684794,3408,184,16548,-40,73,2
3929686503,4220,412,16252,-28,166,-35
3929688205,4460,108,16304,36,245,-55
3929689909,4540,476,16148,34,262,-220
3929691608,3548,952,16204,-21,192,-191
3929693303,2944,884,16388,9,220,-161
3929695016,2884,1020,16528,-54,25,-5
3929696724,3248,724,16400,-41,-21,74
3929698507,4024,580,16176,-23,136,70
3929700218,4532,260,16220,34,99,-44
3929701931,3704,1216,16472,-41,87,-144
3929703641,3476,1196,16640,-75,74,2
3929705362,4192,836,16084,-36,195,111
3929707080,3972,-508,16156,85,97,-35
3929708817,3976,-504,15992,138,100,-169
3929710528,3784,284,16100,97,190,-255
3929712236,3364,1412,16044,96,76,-119
3929713946,3556,1912,16284,-19,33,-17
3929715662,3856,1928,16288,-85,104,55
3929717375,3928,1208,16244,-51,79,-21
3929719110,3632,888,16360,-48,-56,9
3929720821,3772,784,16392,-67,-20,38
3929722530,3516,536,16248,-68,150,17
3929724259,3756,376,16216,-23,54,-59
3929727095,4556,132,15904,-28,82,-20
3929728843,3836,984,16156,71,213,-420
3929730644,3284,1708,16196,35,114,-381
3929732349,3060,1724,16636,-74,-10,-19
3929734054,3736,1072,16364,-124,46,140
3929735754,3924,564,16488,-135,2,73
3929737449,3940,772,16156,-171,-63,-77
3929739149,4128,408,15876,-104,66,34
3929740867,4040,1000,15956,-85,109,-106
3929742562,3984,896,16176,-130,46,-51
3929744262,3932,900,16168,-129,87,-124
3929745958,4068,960,16272,-108,117,-67
3929747651,4248,884,16176,-93,74,-134
3929749349,3952,796,16636,-143,57,-40
3929751106,3852,-120,16220,-30,164,-158
3929752813,3640,748,16588,-16,34,-229
3929754529,3624,892,16460,-31,-41,-142
3929756244,3840,996,16120,-95,25,3
3929757956,4236,1004,15716,-116,47,-9
3929759670,4360,1180,15788,-142,14,-67
3929761443,4644,1668,15884,-225,127,9
3929763143,4556,-140,16000,-182,256,115
3929764843,3748,-488,16236,-89,157,-120
3929766540,3580,-796,16652,-56,138,-160
3929768235,3532,0,16528,73,241,-240
3929769981,3980,880,16248,69,116,-122
3929771753,4740,1768,15816,1,167,-175
3929773462,4772,1760,16080,-66,237,-69
3929775185,3756,952,16032,-8,182,-49
3929776902,3008,1336,16420,-111,41,-95
3929778656,3352,1344,16348,-158,73,-5
3929780429,3692,808,16432,-134,183,188
3929782262,4288,-560,16172,-91,10,116
3929783972,5288,-268,15880,-30,258,-252
3929785699,4120,184,16092,88,397,-217
3929787403,3332,152,16528,143,287,-239
3929789103,2548,1124,16756,20,142,-237
3929790795,3200,1500,16352,20,162,-15
3929792521,3512,1664,16184,38,111,58
3929794223,4152,692,16352,-54,-6,114
3929795919,4176,1144,16576,-125,142,-147
3929797622,3604,1356,16168,-99,176,-53
3929799320,3200,656,16636,-65,-15,128
3929801015,3768,-336,16288,-89,7,110
3929802779,3828,-1640,16076,182,176,-96
3929804489,4112,-1304,16068,277,151,-316
3929806201,4176,684,16360,176,47,-311
3929807919,4292,2620,15756,15,350,-256
3929809631,3420,2648,16620,20,306,-132
3929811342,3632,1896,16628,-100,41,136
3929813058,2812,260,16528,-137,19,37
3929814772,3280,832,16976,25,50,-92
3929816472,3608,1064,16848,-8,-93,38
3929818172,4536,500,15904,-117,-56,240
3929819868,5052,212,16148,-24,249,-154
3929821562,4436,308,16372,48,153,-201
3929823275,3316,176,15784,80,20,-246
3929824986,3128,1892,16192,-6,207,-296
3929826702,3500,2152,16524,-10,51,22
3929828424,3984,1520,16184,-65,-78,182
3929830135,4708,-232,16704,-158,116,-160
3929831844,3152,1688,16632,-100,62,-211
3929833554,3116,844,16664,-129,-99,121
3929835297,3432,1348,15992,-70,-18,-130
3929837019,3968,800,16304,-192,20,235
3929838735,4184,268,15728,-60,7,-125
3929840445,4908,776,15660,-91,10,-80
3929842153,4584,684,16000,-115,201,-220
3929843861,3860,1016,16188,-77,165,-71
3929845602,3524,284,16224,-48,77,-159
3929847320,3328,560,16740,-71,76,-244
3929849029,3484,512,16976,-35,63,-146
3929850741,3860,1184,16644,-29,-81,-121
3929852453,3940,1192,16212,-91,-96,-47
3929854213,4152,1036,15676,-159,65,-23
3929856142,4724,968,15476,-173,92,123
3929857904,4916,24,15256,-151,177,23
3929859611,4424,412,16052,-69,336,-172
3929861310,4132,80,16524,-2,276,-116
3929863004,3496,432,16792,10,131,-153
3929864697,3428,232,16716,-45,179,-124
3929866457,3812,608,16360,37,222,-214
3929868169,3960,1384,16256,4,25,-10
3929869884,4600,968,15884,-52,85,-43
3929871603,4348,1200,16052,-66,241,-174
3929873402,3936,1176,15852,-70,175,-84
3929875204,3576,456,16008,-102,96,53
3929876948,3724,168,16328,-137,233,-10
3929878644,3736,280,16428,22,164,-97
3929880328,3968,384,16436,14,86,-33
3929882008,4532,244,16476,-17,252,-163
3929883688,3736,1088,16572,19,308,-232
3929885371,3512,1116,16392,31,180,-144
3929887057,3228,1000,16468,-67,91,-7
3929888754,3328,616,16220,-17,159,-43
3929890465,3548,1132,16164,11,39,-32
3929892167,3724,784,16316,-26,-22,67
3929893862,4184,168,16044,-49,126,39
3929895557,3896,1248,16356,20,160,-126
3929897322,3680,784,16832,12,32,-17
3929899866,3976,-152,15828,-18,227,-21
3929901594,4016,124,16116,130,189,-313
3929903306,3680,648,16516,101,120,-288
3929905016,3052,824,16284,54,51,-63
3929906724,3364,1712,16376,39,81,-128
3929908435,4148,1668,16112,-40,-4,68
3929910132,3972,1380,16348,-70,39,122
3929911822,3820,544,16444,-42,66,39
3929913513,3604,768,16576,-42,8,-87
3929915206,3512,792,16648,-61,29,-49
3929916897,3700,456,16236,-49,96,93
3929918645,4028,524,15940,24,17,-121
3929920349,4500,828,15748,18,15,-158
3929922059,4308,632,16024,12,214,-246
3929923772,2896,1208,16720,22,87,-271
3929925485,3252,1772,16528,-97,-78,-97
3929927240,3472,1836,16304,-143,-32,36
3929929041,4184,456,16360,-127,95,176
3929930785,3936,752,16220,-93,-48,-208
3929932474,3996,980,16052,-130,43,-40
3929934168,3660,1032,15968,-80,151,0
3929935853,3932,472,16308,-133,37,75
3929937534,3932,596,15888,-119,27,-222
3929939281,4160,984,15816,-137,121,-166
3929940986,4476,536,16148,-77,153,-13
3929942707,4052,456,16396,-116,36,-156
3929944418,3724,588,16176,-26,160,-316
3929946127,3660,1328,16276,-5,167,-283
3929947836,3604,968,16468,-125,7,72
3929949572,3828,660,16188,-131,-4,-97
3929951281,3884,892,16028,-126,48,-72
3929952990,4200,612,15780,-79,51,-51
3929954699,4764,1288,15696,-173,63,37
3929956408,4728,148,15824,-101,295,-3
3929958114,4464,48,16084,-34,279,-52
3929959848,3952,-708,16484,-48,115,-126
3929961561,3724,600,16512,16,237,-288
3929963268,3760,980,16424,27,257,-176
3929964975,4024,996,16016,20,134,-43
3929966683,4228,1172,16036,-85,162,-74
3929968393,4136,848,16052,-1,178,-74
3929970126,3928,928,16388,-11,121,-111
3929971836,3532,908,16084,-114,64,19
3929973560,3644,956,16228,-141,194,-4
3929975295,3952,-144,16392,-51,95,92
3929977012,4288,-108,16240,-19,95,-83
3929978723,4616,188,16264,-37,256,-164
3929980460,3800,544,16380,110,329,-239
3929982172,3500,1024,16544,74,253,-212
3929983881,2928,900,16292,16,99,-139
3929985589,3300,1556,16480,-16,168,19
3929987293,3868,392,16508,-21,30,162
3929989009,4044,264,16288,-28,24,49
3929990751,3716,584,16196,-35,104,-157
3929992464,4008,1648,16160,-38,143,-11
3929994174,3820,1340,16576,-123,101,52
3929995884,3888,-368,16012,-60,52,154
3929997592,3648,-1404,16224,143,170,-133
3929999299,4056,-244,16556,219,132,-410
3930001030,3936,1044,16436,149,105,-428
3930002739,3528,2400,16140,26,201,-50
3930004454,4472,2588,16180,-45,139,36
3930006167,3936,1908,16552,-121,62,110
3930007877,3060,140,16388,-75,61,-3
3930009587,3140,440,16932,-8,22,1
3930011318,3532,604,16168,-46,-70,77
3930013029,3840,624,16120,-58,13,61
3930014738,4760,276,16076,16,106,12
3930016445,4496,284,16216,53,82,-333
3930018153,3672,856,15680,54,67,-411
3930019861,3168,1740,16152,-20,153,-286
3930021592,2940,1980,16544,-72,-27,99
3930023302,4500,-36,16324,-140,7,113
3930025009,4452,240,16704,-133,183,-325
3930026717,3496,1068,16740,-102,-51,-38
3930028424,3220,788,16088,-37,-67,-120
3930030131,4036,1588,16036,-179,91,105
3930031868,4044,792,16164,-174,157,53
3930033579,3812,708,15968,-128,-34,23
3930035287,4904,564,15768,-169,31,-83
3930036995,4600,568,16144,-157,172,-219
3930038703,4160,188,16200,-77,154,-66
3930040411,3684,56,16280,4,71,-313
3930042143,3476,784,16772,-78,116,-206
3930043852,3440,936,16600,-37,124,-194
3930045560,3788,1592,16500,-73,-94,39
3930047268,4168,880,15864,-165,-5,-55
3930048976,4144,1332,15912,-157,113,-145
3930050683,4916,1192,15520,-180,91,123
3930052413,4584,92,15756,-197,193,64
3930054122,4208,-820,16024,-66,307,-86
3930055831,4052,-632,16576,67,302,-269
3930057539,3676,596,16728,24,105,-129
3930059249,3840,404,16488,32,209,-173
3930060957,3864,1188,16348,70,272,-237
3930062666,4148,1668,16136,1,98,-65
3930064372,4080,1408,15944,-87,110,-93
3930066079,3952,1256,16040,-134,196,-49
3930067787,3640,1092,16124,-91,142,-46
3930069495,3572,576,16252,-167,36,152
3930072477,4116,-44,16112,15,236,-140
3930074263,4308,120,16292,56,192,-159
3930075980,3980,860,16284,22,301,-171
3930077720,3640,752,16700,28,280,-139
3930079419,3228,1448,16500,47,147,-207
3930081154,3332,1400,16392,-104,93,108
3930082875,3400,848,16264,-96,126,119
3930084593,3508,580,16612,-20,83,-35
3930086310,3800,492,16144,-32,-59,-14
3930088043,3932,612,16244,-101,155,-23
3930089753,3872,492,16424,-74,164,7
3930091469,4280,232,16220,30,60,-89
3930093179,4276,-324,15952,43,118,-55
3930094892,4216,-356,16048,98,230,-215
3930096604,3480,1256,16428,117,208,-286
3930098307,3056,1264,16224,77,39,-58
3930100061,3468,1680,16520,-56,122,66
3930101776,3688,1096,16588,-23,54,10
3930103477,3900,1424,16440,-18,8,-35
3930105197,3692,356,16356,-84,23,123
3930106928,3828,316,16052,-17,103,32
3930108655,3444,376,16268,-32,23,-103
3930110375,3820,548,16200,0,8,-15
3930112102,4472,852,15756,-21,143,-127
3930113814,4428,856,15908,11,134,-177
3930115539,4052,1180,16296,-5,104,-284
3930117256,2776,816,16584,-26,72,-98
3930118959,3528,1396,16612,-54,-18,-146
3930120659,4004,1648,16164,-130,-8,-67
3930122352,4024,1112,16284,-140,88,-22
3930124091,3984,772,16220,-94,-37,69
3930125831,4028,528,15952,-112,-55,-10
3930127557,3800,1240,16072,-143,61,-67
3930129279,3936,392,16044,-142,99,121
3930130992,3920,348,15996,-100,7,-90
3930132715,4204,472,15884,-101,9,-141
3930134442,4556,440,16236,-74,145,-137
3930136189,3980,340,16196,-39,170,-136
3930137901,3656,992,16132,-18,82,-357
3930139616,3616,1688,16600,-86,63,-317
3930141326,3732,1112,16448,-148,47,125
3930143036,3848,512,16256,-140,4,7
3930144754,3896,504,16204,-132,-1,-55
3930146495,4072,616,15992,-59,83,-123
3930148212,4552,1072,16024,-146,41,66
3930149928,4860,640,15912,-178,160,11
3930151637,4552,172,16180,-146,264,4
3930153345,3836,-876,16228,40,245,-115
3930155065,3668,424,16464,95,163,-409
3930156807,3720,1244,16372,53,165,-342
3930158523,3744,1408,16220,-11,227,33
3930160236,4052,1008,16300,-92,90,51
3930161942,4308,800,16264,-101,113,-175
3930163651,4060,1124,16088,-78,189,-164
3930165369,3664,844,16008,-63,131,77
3930167107,3504,556,16196,-129,118,2
3930168819,3612,-72,16328,-45,199,-16
3930170527,4040,180,16216,46,164,-82
3930172238,4584,460,16320,-4,162,-76
3930173946,4176,772,16128,9,335,-259
3930175676,3584,968,16380,20,334,-205
3930177433,3108,816,16316,42,133,-89
3930179222,3168,1144,16416,-60,63,-62
3930181072,3620,768,16348,-6,129,129
3930182843,4144,112,16188,-24,13,39
3930184575,4048,-32,16388,-20,-3,-47
3930186299,3516,904,16328,-39,141,-237
3930188178,3668,1292,16492,-61,127,87
3930189888,4172,108,15892,-50,51,73
3930191577,4004,-392,16316,7,121,-54
3930193261,3832,-696,16388,215,174,-322
3930194943,3536,1140,16500,122,80,-260
3930196624,3624,1580,16208,72,92,-149
3930198367,3804,2492,16088,-7,161,32
3930200118,3964,1548,16440,-100,32,90
3930201901,3256,544,16228,-80,-34,-8
3930203653,3328,496,16212,-67,51,-27
3930205376,3332,156,16340,-5,9,25
3930207090,3688,504,16164,-88,-30,25
3930208879,4580,352,16132,-19,95,-55
3930210584,5000,528,16208,28,166,-112
3930212282,4016,560,15800,32,73,-274
3930213973,2968,1828,16336,-24,152,-382
3930215664,2840,2120,16592,-52,123,-167
3930217360,3580,980,16504,-83,-60,194
3930219115,3992,592,16516,-166,74,-112
3930220821,3992,848,16408,-89,14,-60
3930222531,4092,956,16148,-46,-34,65
3930224242,3928,620,15876,-70,2,52
3930225951,3960,1148,16068,-142,181,-174
3930227660,3884,1272,16020,-132,188,-110
3930229393,4268,1196,15956,-111,-9,36
3930231128,4532,712,16152,-211,85,-83
3930232856,4060,-28,16056,-96,202,-139
3930234578,3712,-152,16320,-34,138,-196
3930236369,3636,208,16540,-8,10,-210
3930238182,3352,1160,16620,-52,135,-264
3930240080,3676,1292,16252,-60,-48,34
3930241796,4320,1484,15676,-145,-46,24
3930243495,4452,1324,15728,-206,39,6
3930245970,4864,1160,15768,-204,189,134
3930247686,4160,-988,15944,-165,135,125
3930249384,3832,-1348,16224,-100,239,-93
3930251101,3592,-440,16612,109,237,-293
3930252802,3976,540,16304,111,77,-163
3930254506,4168,1012,16088,48,121,-148
3930256225,4512,1440,15984,10,260,-157
3930257932,3724,1716,16216,-32,152,-118
3930259625,3476,1132,16280,-137,86,-12
3930261347,3464,1380,16416,-145,181,-107
3930263042,3428,1056,16284,-143,84,127
3930264741,3916,-216,16100,-135,21,184
3930266443,4432,-540,15812,-97,131,114
3930268144,4980,-296,16092,107,339,-242
3930269837,3956,900,16436,92,259,-276
3930271601,2944,672,16372,22,231,-93
3930273311,2696,916,16532,46,244,-186
3930275047,3268,1864,16328,6,51,-56
3930276776,4176,1268,16344,-108,126,130
3930278558,4056,316,16612,-97,140,-3
3930280386,3784,420,16336,-51,47,-164
3930282238,3120,1000,16532,-98,-36,-9
3930283935,3908,-20,16316,-74,116,127
3930285625,3944,-820,16104,64,107,7
3930287310,4108,-1172,15944,150,71,-143
3930288992,4320,584,16116,189,190,-421
3930290679,4040,1824,15884,95,255,-133
3930292436,3332,2012,16312,47,199,-127
3930294165,3412,2132,16712,-121,80,117
3930295880,3496,348,16280,-64,67,76
3930297626,3296,600,16752,25,-13,-89
3930299440,3832,600,16312,-57,-15,17
3930301234,3920,668,16204,-104,72,58
3930303079,3872,68,16044,34,25,-47
3930304820,4400,740,15928,-8,14,-165
3930306592,3916,620,15716,39,191,-176
3930308364,3792,1232,16160,81,238,-320
3930310085,3168,1968,16472,-25,15,-190
3930311800,3800,1232,16152,-67,-6,81
3930313550,4248,580,16772,-107,130,-92
3930315325,3904,1004,16604,-101,48,-206
3930317084,3524,1172,16484,-182,-39,13
3930318908,3704,920,15940,-53,-13,92
3930320718,3784,504,16264,-159,20,-42
3930322474,3828,548,16208,-127,57,-57
3930324249,4196,652,15888,-92,88,-65
3930325983,4320,408,15840,-128,27,-44
3930327676,4548,316,16112,-118,92,-224
3930329359,4032,656,16280,-109,213,-259
3930331041,3700,640,16448,6,149,-189
3930332726,3372,1360,16616,-86,22,-202
3930334415,3808,1164,16280,-140,43,-18
3930336119,3824,948,16128,-93,59,16
3930337811,3792,556,15964,-107,-23,24
3930339494,4428,984,16136,-139,71,-34
3930341157,4404,1028,15800,-143,151,33
3930342808,4940,468,15728,-114,155,101
3930344463,4356,-328,16228,-92,217,-59
3930346162,4076,-496,16448,-23,247,-146
3930347839,3644,104,16648,76,232,-301
3930349506,3612,844,16560,8,112,-166
3930351208,3712,1168,16256,-6,99,-125
3930352885,3992,1464,16032,-57,198,-10
3930354545,4616,1016,15692,-55,111,-87
3930356270,4460,1184,16012,-84,113,-166
3930358021,3684,992,16356,-144,135,-33
3930359820,3384,572,16112,-73,162,83
3930361596,3492,20,16532,-67,94,25
3930363364,4120,428,16532,-12,179,-94
3930365190,4336,476,16476,33,236,-30
3930366984,4544,460,15984,25,240,-107
3930368742,3404,748,16328,-3,221,-260
3930370465,2916,760,16548,44,181,-146
3930372195,3196,1084,16484,4,111,-93
3930373910,3388,864,16368,-80,2,53
3930375622,3896,372,16256,-43,115,25
3930377366,4188,-100,16164,24,52,22
3930379100,4228,220,16316,14,37,-160
3930380815,3732,1616,16412,-50,131,-138
3930382550,3952,1140,16132,-23,186,161
3930384287,3928,-676,15924,37,58,32
3930386088,3828,-872,16088,118,60,-224
3930387886,3928,520,16316,114,258,-322
3930389619,3256,1532,16088,96,77,-20
3930391330,3308,1716,16460,-12,2,-39
3930393035,3960,1940,16340,-54,94,-12
3930394713,4168,1276,16196,-43,74,81
3930396374,3800,772,16108,-83,9,-32
3930398038,3520,504,16756,-122,-10,-15
3930399702,3224,488,16412,-58,103,-47
3930401365,3600,-140,16280,-42,-9,20
3930403028,4248,108,16164,-19,-7,-127
3930404694,4788,552,16036,-16,127,-97
3930406409,3996,1252,15904,87,135,-368
3930408172,3608,2036,16056,33,87,-288
3930409911,2996,1892,16416,-87,33,-66
3930411632,3688,1068,16420,-147,61,225
3930413348,3992,212,16200,-143,-10,-8
3930415071,3932,72,16656,-130,-88,-94
3930416873,4228,560,15892,-56,10,-56
3930419602,4152,796,16036,-116,106,-28
3930421338,3720,844,16120,-158,127,-197
3930423037,3952,1344,15788,-95,140,-196
3930424748,4168,1188,16240,-148,-9,-23
3930426454,4120,296,16644,-168,77,-73
3930428155,3836,-180,16552,-142,153,-132
3930429852,3692,112,16336,44,125,-297
3930431550,3712,1020,16372,-45,-33,-138
3930433244,3916,1276,16076,-92,53,-28
3930434946,4160,1464,15920,-95,57,31
3930436647,4548,1092,15600,-146,17,58
3930438419,4864,1276,15692,-217,237,-43
3930440137,4584,932,15908,-184,290,-23
3930441851,4084,-276,16224,-102,127,93
3930443562,3628,-972,16352,-108,140,-122
3930445281,3552,-504,16800,85,239,-270
3930446996,3724,236,16556,137,177,-247
3930448712,4556,1140,15836,49,72,-133
3930450456,4656,1836,16028,-68,280,-193
3930452173,3524,1256,16068,11,181,-87
3930453886,3256,1252,16108,-19,90,-30
3930455605,3392,1256,16056,-185,90,1
3930457323,3776,1124,16176,-132,196,151
3930459034,3884,456,16444,-115,80,256
3930460769,4820,-900,16164,-37,51,153
3930462482,4596,-336,16252,84,407,-451
3930464205,3132,864,16508,150,261,-219
3930465918,3028,968,16588,67,153,-84
3930467630,2788,1204,16128,-50,140,-87
3930469341,3528,1384,16192,31,144,-67
3930471115,4628,1368,16284,-71,43,125
3930472854,4384,556,16500,-146,39,66
3930474574,3320,1072,16432,-84,160,-195
3930476301,2808,572,17020,-72,-75,148
3930478074,4152,-108,16220,-82,53,150
3930479824,3888,-1104,16044,-20,158,104
3930481573,4172,-872,15924,282,193,-404
3930483287,4140,924,16308,146,56,-252
3930484999,3980,1520,15628,91,127,-166
3930486796,3144,2444,16576,29,272,-171
3930488623,3336,1712,16712,-119,-11,190
3930490406,2988,28,16440,-108,25,46
3930492142,3176,172,17012,-2,-10,-61
3930493840,3936,636,16492,-3,-41,-72
3930495523,4200,664,16096,-113,-33,180
3930497205,4500,28,16132,36,165,-151
3930498886,4248,592,16148,59,103,-231
3930500567,3964,620,15688,89,40,-260
3930502309,3340,1960,16080,-19,254,-220
3930504047,3228,2016,16340,-20,19,-76
3930505761,3512,1600,16252,-51,-123,68
3930507473,4560,-40,16940,-145,121,-11
3930509185,3484,1124,16784,-89,68,-153
3930510895,3308,856,16392,-99,-60,-12
3930512630,3540,1392,15944,-72,-88,-35
3930514343,4176,756,16292,-190,102,170
3930516075,4052,160,16004,-130,30,-123
3930517787,4492,776,15740,-101,-9,-173
3930519500,4236,580,15964,-144,103,-42
3930521212,4156,320,16356,-96,141,-145
3930522947,4036,428,16252,-91,129,-224
3930524658,3464,740,16516,-38,118,-215
3930526365,3612,948,16700,-43,105,-158
3930528124,3916,1380,16412,-96,-74,-105
3930529836,3920,1496,16148,-135,-48,-38
3930531551,3976,596,15780,-132,89,87
3930533284,4580,504,15684,-119,53,1
3930534997,4496,648,15700,-113,87,-54
3930536708,4688,636,15712,-131,235,-5
3930538418,4484,20,16220,-97,246,23
3930540129,3672,-424,16492,15,175,-263
3930541835,3340,-40,16764,2,189,-358
3930543567,3592,656,16648,63,167,-128
3930545278,3728,1348,16264,-14,73,-114
3930547065,4136,1012,16044,-56,92,-45
3930548874,4572,1424,15812,-41,191,-96
3930550628,4368,1260,15996,-101,157,-56
3930552361,3752,996,15772,-133,163,-14
3930554176,3376,192,16312,-82,204,89
3930555893,3600,-148,16340,-38,123,-31
3930557597,3708,-8,16304,14,125,-107
3930559294,4180,720,16152,60,256,-88
3930560989,4372,876,16360,7,251,-152
3930562683,3868,868,16412,-24,185,-176
3930564393,3300,768,16284,-21,190,-192
3930566101,2948,1044,16340,-42,122,-44
3930567810,3132,720,16368,-34,38,17
3930569518,3588,732,16472,-48,21,14
3930571226,4300,60,16392,14,112,27
3930572934,3992,420,16480,30,100,-158
3930574645,3844,736,16448,10,97,-201
3930576355,4092,1668,16260,-46,182,-8
3930578063,3916,-172,16052,5,136,170
3930579775,3716,-788,16148,69,107,-29
3930581484,3600,-88,16264,105,155,-340
3930583191,3212,1124,16296,177,92,-128
3930584955,3364,1728,16372,30,-8,15
3930586742,3876,1832,16224,-45,-10,50
3930588518,4108,1264,16352,-81,117,9
3930590264,3844,848,16048,-37,11,40
3930592881,3264,544,16520,-65,155,-133
3930594612,3256,572,16596,-37,108,-64
3930596313,3768,532,16232,-5,-45,-55
3930597999,4864,480,15820,-64,52,-60
3930599681,5056,464,15796,-27,243,-212
3930601371,3404,1460,16136,40,115,-322
3930603056,2848,1604,16524,-34,-32,-82
3930604742,3028,1552,16608,-104,27,-17
3930606453,4036,1176,16392,-97,52,159
3930608170,4140,320,16380,-106,-52,-28
3930609881,4196,524,15876,-142,-10,-59
3930611601,4068,568,15948,-84,106,-62
3930613321,3876,1064,16028,-103,74,35
3930615108,3812,184,16124,-165,87,-101
3930616827,3984,1356,15972,-97,131,-199
3930618527,4060,1096,16444,-67,23,-116
3930620224,4156,764,16432,-114,3,-48
3930621922,3816,-144,16368,-101,181,-172
3930623619,3896,436,16144,16,231,-360
3930625336,3720,1504,16428,-69,-28,-38
3930627034,3876,740,16104,-113,56,64
3930628740,4264,780,16008,-65,64,-45
3930630442,4268,808,15764,-49,29,-56
3930632151,4464,1492,15860,-156,66,-35
3930633844,4820,748,15864,-224,224,115
3930635612,4548,40,16116,-163,237,36
3930637327,3928,-812,16300,-96,146,-55
3930639043,3700,-840,16500,29,263,-326
3930640753,3896,940,16400,108,158,-246
3930642461,4080,1224,16020,95,78,-130
3930644167,4560,1732,16076,-51,194,-12
3930645899,4148,980,16124,-16,222,-104
3930647618,3904,1420,16208,0,142,-181
3930649342,3608,1300,16292,-141,53,52
3930651056,3580,912,16416,-151,212,116
3930652766,3684,-124,16540,-84,63,128
3930654484,4068,-420,16036,-5,21,77
3930656198,5104,-120,16048,-28,308,-159
3930657895,3976,252,16344,108,334,-280
3930659589,3424,736,16588,116,231,-306
3930661281,2740,864,16416,-19,110,-120
3930662974,3260,1484,16436,32,198,-148
3930664669,3756,1304,16548,-3,32,120
3930666431,4112,740,16420,-27,18,99
3930668146,4284,964,16152,-130,200,-66
3930669860,3344,1192,16444,-68,87,-79
3930671570,3536,1400,16632,-81,22,18
3930673278,3784,-520,16272,-112,4,322
3930674986,3712,-1804,16288,186,185,-167
3930676720,4048,-240,16420,292,103,-443
3930678430,4064,916,16072,214,49,-333
3930680139,4372,2588,15740,8,349,-106
3930681847,4196,2712,16356,-65,167,-1
3930683555,3620,1868,16944,-124,19,83
3930685265,2680,-204,16600,-108,-16,109
3930686995,3212,736,17096,23,31,-185
3930688705,3732,1116,16168,-73,-138,151
3930690428,4376,612,15836,-94,-33,271
3930692172,5024,-260,16108,-18,192,-7
3930693881,3932,264,15876,103,38,-398
3930695587,3116,1672,15760,57,129,-239
3930697327,3112,1968,16352,-8,188,-84
3930699040,3164,1940,16492,-55,9,-13
3930700753,4836,420,16120,-84,-5,110
3930702465,4748,176,16792,-106,146,-186
3930704179,3416,1252,16796,-156,-6,-58
3930705887,3104,592,16424,-85,-41,-157
3930707619,3776,1908,16076,-216,20,194
3930709329,4068,464,16100,-221,45,323
3930711040,4360,528,15752,-76,3,-192
3930712749,4916,512,15812,-120,66,-101
3930714458,4504,408,15808,-100,212,-181
3930716169,3956,448,16220,-109,157,-70
3930717904,3668,860,16352,-7,96,-394
3930719614,3408,948,16848,-115,107,27
3930721322,3380,216,16596,-61,92,44
3930723029,3652,1096,16428,-63,-58,-180
3930724742,4160,1176,15784,-130,-21,-50
3930726449,4308,1132,15744,-143,85,45
3930728156,4792,628,15556,-208,70,200
3930729864,4768,-204,15600,-148,176,-99
3930731570,4516,80,15984,-82,329,-60
3930733280,4248,-568,16380,4,294,-117
3930734988,3440,640,16568,7,177,-234
3930736696,3224,272,16664,6,209,-168
3930738426,3500,884,16488,69,193,-188
3930740139,4124,1372,16256,-27,25,11
3930741845,4540,1608,16024,-78,148,-144
3930743554,4448,1216,16056,-107,202,44
3930745263,4088,776,15860,-98,122,42
3930746971,3384,388,15832,-121,106,-25
3930748702,3560,4,16328,-71,276,-3
3930750413,3848,348,16452,-21,239,-18
3930752127,3932,-56,16436,-17,75,-20
3930753839,4524,768,16340,4,282,-249
3930755548,3676,832,16492,27,262,-150
3930757258,3432,808,16224,42,183,-171
3930758989,3220,1340,16372,-86,106,-103
3930760700,3220,792,15988,-24,137,40
3930762408,3556,864,16144,-9,78,30
3930765236,4080,284,16052,-27,74,-75
3930766992,3952,952,16372,-16,199,-73
3930768715,3876,624,16264,0,26,-4
3930770526,4052,108,16224,-16,132,11
3930772238,4104,-232,16024,64,239,-68
3930773935,4124,104,16408,145,180,-244
3930775632,3204,640,16484,68,70,-192
3930777325,2948,1168,16364,58,84,-204
3930779063,3368,1776,16368,1,73,49
3930780899,4052,1516,16208,-61,7,39
3930782613,3700,664,16456,-102,81,33
3930784299,3656,528,16440,2,56,-1
3930785975,3636,600,16560,-30,-9,-49
3930787654,3436,440,16468,-50,66,-48
3930789336,3816,776,16196,-22,115,-31
3930791079,4436,812,15780,-13,24,-55
3930792770,4496,632,15964,-23,147,-223
3930794477,3196,1196,16440,35,202,-310
3930796188,2708,1384,16600,65,30,-202
3930797894,3400,1584,16588,-85,-70,17
3930799599,3980,1048,16500,-177,90,92
3930801337,4244,772,16372,-119,102,6
3930803057,4164,776,15968,-133,-99,-42
3930804771,4016,656,16004,-119,73,-91
3930806480,3852,800,16448,-91,120,19
3930808191,3932,492,16012,-104,39,-1
3930809899,4080,752,15784,-142,37,-116
3930811632,4408,644,16140,-70,157,-81
3930813343,4328,660,16440,-84,93,-79
3930815071,4056,328,16184,-87,70,-108
3930816820,3812,796,16156,-26,166,-314
3930818557,3744,1384,16472,-63,35,-64
3930820277,3640,828,16460,-91,-58,63
3930822079,3836,564,16176,-180,35,12
3930823790,4068,548,16064,-86,88,-95
3930825490,4288,1244,15804,-149,13,-7
3930827183,4672,1048,15708,-196,55,111
3930828874,4724,-56,15996,-135,312,-23
3930830567,4028,-576,16220,-10,208,-112
3930832339,3612,48,16512,56,176,-335
3930834057,3668,756,16500,44,233,-260
3930835798,4100,1440,16176,55,143,-85
3930837637,4464,1448,16136,-97,137,10
3930839440,4132,636,16032,-94,222,-48
3930841179,3764,672,16328,-10,175,-134
3930842992,3428,1140,16220,-69,30,-87
3930844689,3664,1008,16272,-163,157,63
3930846375,3664,-92,16476,-85,127,106
3930848060,4120,-432,16216,-11,83,-32
3930849744,4640,260,15976,-17,147,-144
3930851430,4124,180,16276,44,419,-206
3930853172,3584,764,16364,93,355,-289
3930854877,2836,876,16732,18,103,-139
3930856590,3216,1516,16240,-26,141,-51
3930858300,4016,808,16500,-21,90,122
3930860045,4288,676,16304,-19,83,57
3930861759,4048,276,16348,-71,55,-15
3930863494,3324,1028,16248,22,104,-173
3930865207,3828,1824,16368,-68,139,-63
3930866917,4048,672,15900,-78,-2,219
3930868629,3916,-1048,15932,50,201,21
3930870339,4004,-1116,16016,232,139,-427
3930872073,4080,328,16560,207,119,-514
3930873807,3332,2120,16028,51,159,-106
3930875517,3712,2200,16292,-19,149,10
3930877227,3720,1736,16524,-139,0,67
3930878936,3548,832,16308,-82,-31,110
3930880645,3224,468,16388,-26,120,-6
3930882353,3580,388,16280,-36,-21,-42
3930884161,3668,860,16268,-55,-36,-54
3930885896,4392,156,16048,-90,36,177
3930887640,4884,-188,16248,52,156,-163
3930889371,3552,1156,15648,89,64,-437
3930891096,3176,1560,16012,57,54,-354
3930892875,3096,2340,16640,-65,134,-73
3930894689,3836,568,16312,-99,-65,197
3930896438,4264,716,16676,-133,129,-273
3930898144,3828,904,16948,-179,45,-134
3930899839,3752,468,16224,-57,-59,-47
3930901537,3940,1512,15836,-110,-7,-4
3930903236,3968,868,16016,-155,159,18
3930905012,3824,868,16040,-130,129,-3
3930906729,4696,1116,15644,-110,-14,-89
3930908442,4324,928,16000,-182,155,-53
3930910153,3872,-464,16284,-84,155,-6
3930911863,3840,-524,16384,-42,152,-257
3930913572,3596,700,16544,-22,66,-293
3930915306,3536,928,16620,-11,105,-133
3930917018,3420,1304,16576,-36,-28,-40
3930918728,4164,1008,15940,-146,-90,-16
3930920437,4368,1632,15612,-182,110,-61
3930922148,5140,1048,15532,-182,132,111
3930923855,4892,556,15716,-207,149,48
3930925593,4260,-564,15936,-154,198,-5
3930927305,3820,-568,16516,61,275,-206
3930929015,3744,-40,16680,57,189,-201
3930930724,3808,548,16496,63,130,-186
3930932433,4156,1632,16072,30,240,-138
3930934141,4332,1148,16020,-12,144,-26
3930935875,3928,1056,16320,-44,107,-148
3930938404,3596,1212,16116,-97,175,-9
3930940124,3532,1036,16056,-128,85,65
3930941834,3620,496,16120,-149,27,146
3930943543,4092,-412,16092,-98,158,-19
3930945255,4532,-332,16200,66,252,-84
3930946967,4416,-192,16232,99,289,-282
3930948666,3568,1216,16604,49,245,-246
3930950360,3100,1056,16372,31,234,-97
3930952083,3056,1416,16328,-4,59,19
3930953782,3576,1168,16152,-54,24,33
3930955526,3944,1116,16324,-100,165,26
3930957306,3856,196,16332,-31,63,25
3930959040,3212,716,16432,-56,-6,-108
3930960740,3424,992,16452,-105,56,-42
3930962435,4200,184,16040,2,138,118
3930964130,4428,-708,15880,66,120,-37
3930965823,4252,-1020,16236,125,123,-228
3930967519,3756,1056,16328,116,248,-402
3930969222,3172,1280,16340,78,141,-36
3930970930,3280,1824,16244,59,64,-101
3930972638,3480,1600,16852,-158,32,93
3930974349,3820,808,16260,1,72,-27
3930976088,3584,380,16884,-37,-85,47
3930977830,3884,352,16276,-20,-50,-55
3930979542,3896,840,16252,-83,143,58
3930981252,3788,160,15992,27,27,-4
3930982960,3976,280,16248,6,-23,-103
3930984670,4440,884,15684,-6,139,-220
3930986379,4252,1352,16112,64,190,-221
3930988114,2928,1096,16796,-43,9,-136
3930989823,2776,1000,16604,-68,-31,-141
3930991531,3764,1224,16324,-113,63,-29
3930993238,4040,896,16504,-108,22,-16
3930994947,3924,992,16232,-128,-11,-62
3930996655,3952,700,15916,-125,-9,17
3930998388,3928,1116,16040,-68,97,-56
3931000111,3776,628,16272,-148,-8,9
3931001824,4080,844,16028,-142,27,-88
3931003532,4104,684,15960,-134,75,40
3931005243,4596,236,15936,-91,108,-108
3931006952,4116,240,16388,-84,141,-246
3931008687,3804,436,16440,-17,181,-264
3931010398,3616,1180,16592,-27,89,-232
3931012116,3608,1388,16512,-150,-19,-27
3931013833,3736,1064,16300,-160,41,41
3931015545,3792,580,16024,-90,4,37
3931017256,4344,684,15944,-108,4,-146
3931019052,4344,1292,15748,-164,128,15
3931020754,4704,892,15800,-133,159,129
3931022436,4644,180,15952,-96,181,16
3931024118,4072,-640,16340,-32,220,-204
3931025800,3928,-8,16460,57,294,-313
3931027480,3768,700,16568,38,153,-146
3931029219,3832,1168,16000,7,139,-115
3931030927,4088,1328,16200,-64,235,-102
3931032638,4300,1232,15980,-39,181,-55
3931034349,4188,1032,16076,-100,95,-59
3931036090,3596,704,16172,-150,136,-41
3931037800,3496,644,16224,-104,180,-20
3931039535,3452,420,16236,-109,64,97
3931041248,4112,-244,16552,-58,142,-108
3931042962,4376,540,16252,31,264,-150
3931044675,4320,352,16088,54,227,-110
3931046384,3880,944,16280,26,245,-230
3931048095,3168,1096,16492,3,286,-172
3931049832,2948,1340,16708,15,221,-131
3931051543,3188,1124,16440,-65,-4,114
3931053253,3852,200,16496,-72,106,83
3931054962,4240,332,16412,31,105,-48
3931056673,4136,276,16216,17,33,-55
3931058382,3600,1012,16400,-52,17,-110
3931060116,3840,848,16508,-62,162,47
3931061824,4304,-112,16172,32,101,55
3931063533,4000,-648,16028,66,95,-13
3931065242,3572,-360,16152,142,235,-448
3931066949,3332,1380,16384,136,77,-184
3931068658,3404,1716,16344,117,67,-49
3931070394,4092,2348,16124,-75,96,74
3931072106,4068,1596,15924,-73,119,13
3931073813,3716,1000,16144,-69,-36,102
3931075522,3444,244,16544,-80,-51,155
3931077229,3352,28,16432,-46,134,-64
3931078938,3648,208,16300,1,5,-50
3931080671,3928,316,16248,40,-41,-48
3931082381,4968,380,16100,-26,121,-79
3931084092,4220,1004,15988,47,192,-401
3931085799,2776,1788,16684,-28,65,-247
3931087506,2660,1824,16608,-85,17,-91
3931089214,3648,1188,16440,-109,-4,99
3931090945,4264,560,16372,-149,55,-42
3931092664,3804,308,16816,-128,-20,-123
3931094384,4180,664,16088,-104,-29,13
3931096100,3952,996,15900,-51,54,-72
3931097809,4040,1156,16312,-187,91,24
3931099516,3596,736,16148,-193,91,22
3931101253,4092,944,16188,-101,101,-116
3931102963,4468,872,16344,-112,5,-88
3931104691,4308,256,16496,-143,47,-33
3931106414,3980,-468,16040,-55,171,-199
3931108129,3736,560,16336,43,55,-360
3931110662,3276,1252,16476,-61,-8,-67
3931112474,4012,1232,16144,-100,10,31
3931114183,4340,1556,15812,-154,13,-13
3931115880,4916,1388,15788,-210,176,22
3931117574,4712,1068,15784,-212,228,77
3931119266,4216,-428,16192,-142,149,73
3931120958,3788,-716,16440,-78,177,-82
3931122713,3720,-800,16600,88,237,-199
3931124429,3872,-232,16476,146,194,-253
3931126141,4280,1608,16084,107,88,-308
3931127852,4748,1924,15980,-56,241,-9
3931129560,4312,1468,16016,-56,258,-34
3931131269,3292,1108,16368,-108,74,-93
3931133002,3148,1392,16256,-175,106,-100
3931134711,3512,424,16236,-128,111,214
3931136419,3960,56,16208,-103,86,144
3931138128,4696,-656,15904,-88,73,59
3931139837,4664,-348,16180,91,384,-288
3931141545,4088,144,16360,147,376,-310
3931143255,3052,1032,16556,86,177,-264
3931144965,2864,1948,16292,-48,195,-90
3931146673,3260,1284,16252,18,95,114
3931148383,3764,1116,16164,-6,43,78
3931150089,4200,872,16708,-96,95,-36
3931151796,3736,804,16428,-44,136,-40
3931153528,3280,760,16392,-59,54,-18
3931155239,3344,88,16328,-87,-57,66
3931156947,3912,-416,16200,-25,144,51
3931158654,4236,-1136,16004,208,135,-168
3931160363,4528,-220,16344,224,148,-413
3931162071,4016,1604,15896,89,161,-253
3931163803,3140,2124,16596,56,210,-117
3931165513,3480,2612,16152,-33,130,3
3931167223,3464,1072,16472,-139,-11,99
3931168931,3372,720,16400,-34,93,41
3931170639,3752,-44,16360,7,-60,32
3931172348,3812,484,16372,-3,-59,-99
3931174075,4096,428,16140,-52,85,60
3931175781,4332,500,16268,50,109,-81
3931177499,4316,424,16020,0,18,-92
3931179219,3776,764,15792,10,115,-321
3931180936,3244,2016,16244,4,176,-204
3931182645,3268,1420,16568,-66,-51,-6
3931184356,3816,1140,16432,-96,-50,81
3931186063,3996,620,16780,-127,181,-190
3931187770,3656,1356,16364,-115,-58,-17
3931189479,3576,800,16380,-113,-98,41
3931191187,3932,1300,15880,-116,27,20
3931192894,3912,608,16252,-150,78,50
3931194602,4088,436,16040,-93,-19,-77
3931196309,4268,712,15816,-106,1,-97
3931198015,4232,508,15916,-100,136,-35
3931199722,4192,84,16232,-89,116,-130
3931201431,4112,316,16560,-80,82,-255
3931203144,3780,1000,16492,-62,139,-289
3931204855,3540,1152,16800,-70,60,-68
3931206677,3804,860,16392,-128,-62,-79
3931208523,3684,768,16184,-126,56,-12
3931210286,4024,688,15848,-79,55,42
3931212039,4384,1000,15668,-151,23,15
3931213769,4732,900,15580,-168,156,-3
3931215597,4828,412,16000,-104,298,79
3931217301,4504,-420,16328,-40,224,55
3931218993,3932,-348,16444,32,184,-292
3931220680,3624,760,16484,42,268,-265
3931222364,3544,900,16592,86,187,-123
3931224076,3836,1288,16136,-18,44,-37
3931225828,4592,1112,16044,-111,171,-131
3931227529,4316,1512,16076,-68,179,-108
3931229236,3924,1196,16112,-99,82,23
3931230936,3344,620,16304,-140,118,-36
3931232631,3276,192,16544,-79,179,44
3931234368,3528,24,16396,-3,129,31
3931236125,4240,324,15988,-12,91,-29
3931237835,4856,548,16000,7,348,-150
3931239535,4056,1056,16392,46,293,-174
3931241233,3312,564,16436,34,147,-95
3931242935,2916,752,16380,-11,175,-201
3931244630,3104,1428,16532,-21,108,-10
3931246396,3748,440,16248,-24,-43,159
3931248108,4208,204,16136,-51,23,76
3931249824,4404,124,16188,-15,144,-120
3931251533,3644,1008,16364,-3,92,-194
3931253243,3436,1248,16432,-46,15,-33
3931254952,3988,680,16200,-91,200,67
3931256687,4012,-308,15844,82,143,-56
3931258397,3896,-260,16344,135,99,-284
3931260109,3836,324,16196,96,187,-286
3931261815,3372,1664,16316,115,201,-149
3931263522,3364,2256,16200,-4,-3,61
3931265230,3912,1824,16528,-77,-41,166
3931266974,3764,1064,16456,-79,127,-19
3931268698,3700,840,16108,-9,25,21
3931270419,3388,524,16576,-111,-15,-5
3931272135,3456,444,16488,-164,58,-6
3931273844,3784,72,16432,-23,96,-56
3931275555,4212,216,15988,6,-44,-11
3931277290,4744,-60,15584,-15,3,-45
3931279000,3940,1184,16080,69,281,-510
3931280708,3032,1976,16728,9,23,-162
3931283552,3544,1052,16596,-190,24,136
3931285305,4048,840,16440,-91,26,-113
3931287025,4108,940,16128,-103,-61,-25
3931288812,4160,320,15700,-139,-46,111
3931290517,3972,468,16156,-76,168,-72
3931292225,4072,620,16156,-82,125,-116
3931293932,4012,876,15888,-122,22,-150
3931295628,4044,848,16088,-179,169,-43
3931297320,4100,676,16364,-92,125,-206
3931299090,3840,592,16456,-108,40,-161
3931300795,3832,4,16228,-57,97,-215
3931302503,3756,1216,16420,-4,147,-212
3931304217,3680,1000,16580,-28,-24,-64
3931305930,3608,1076,16396,-96,-81,6
3931307639,4296,916,15832,-113,76,54
3931309375,4872,1684,15588,-158,136,-53
3931311086,4884,1512,15828,-231,143,64
3931312794,4420,-140,16008,-220,278,139
3931314504,3696,-824,16464,-50,164,-103
3931316214,3536,-936,16536,0,118,-186
3931317925,3500,-220,16620,46,187,-278
3931319657,3752,620,16640,82,175,-117
3931321366,4804,1924,15768,16,126,-230
3931323074,4860,1864,15900,-64,137,-69
3931324783,3980,1152,16244,-61,255,-125
3931326491,2964,1284,16524,-103,103,-35
3931328201,3168,852,16216,-113,32,32
3931329935,3520,916,16388,-163,130,108
3931331643,4184,-572,16120,-42,101,184
3931333350,5320,28,16212,-11,234,-188
3931335071,4956,84,16168,-7,293,-236
3931336793,3404,404,16236,115,373,-278
3931338501,2464,1156,16716,43,129,-186
3931340211,3108,1580,16272,-37,78,-26
3931341920,3556,1568,16208,-54,135,47
3931343628,4444,652,16108,-43,72,129
3931345337,4120,948,16388,-105,93,-183
3931347045,3488,980,16540,-128,66,-105
3931348752,3028,700,16912,-70,70,22
3931350486,3748,-176,16380,-98,-31,198
3931352200,3936,-1472,16116,142,168,-146
3931353907,3920,-1036,16008,259,229,-319
3931355616,4492,984,15876,197,90,-331
3931357325,3960,2432,16260,-24,271,-141
3931359032,3424,2488,16424,-40,251,-78
3931360764,3396,1404,16648,-69,57,164
3931362472,2772,128,16436,-50,-43,-61
3931364182,3300,660,17144,1,59,-72
3931365888,3652,908,16400,20,-14,67
3931367597,4520,388,15976,-122,-7,227
3931369305,4580,284,16244,-23,189,-209
3931371037,4244,232,16424,45,147,-185
3931372745,3300,292,15940,89,63,-333
3931374456,3340,2060,16324,-18,123,-257
3931376164,3524,2396,16316,-25,45,40
3931377873,4000,1448,16140,-59,-53,270
3931379580,4400,-208,16996,-119,120,-251
3931381311,3320,1620,16804,-166,35,-48
3931383024,3304,652,16564,-124,-52,179
3931384734,3556,1264,16256,-63,-27,-18
3931386442,4192,496,16368,-194,-21,62
3931388150,4200,284,15876,-55,91,-104
3931389858,4844,704,15492,-90,50,-67
3931391590,4368,788,15736,-108,89,-217
3931393349,3812,944,16136,-137,182,-93
3931395141,3728,332,16468,-48,74,-180
3931396910,3496,836,16684,-57,44,-229
3931398674,3644,420,16556,-84,68,-195
3931400432,3744,1368,16340,-20,4,-108
3931402306,4040,792,15972,-125,-59,32
3931404091,4480,1188,15620,-156,130,28
3931405838,4748,860,15616,-146,142,125
3931407556,4800,252,15408,-122,198,7
3931409317,4592,344,15944,-126,261,-95
3931411102,3668,-136,16316,54,230,-146
3931412920,3560,216,16692,21,188,-178
3931414699,3472,280,16800,-56,134,-112
3931416445,3560,988,16520,49,201,-179
3931418217,4260,952,15724,-9,10,-7
3931419999,4824,1672,15708,-91,159,-220
3931421840,4588,1752,15884,-124,249,-112
3931423599,3464,724,15964,-51,164,8
3931425308,3380,316,16268,-144,103,57
3931426966,3584,252,16304,-107,162,-62
3931428608,3532,676,16524,0,195,28
3931430247,4580,48,16052,-3,147,43
3931431885,4708,268,16388,-15,222,-157
3931433570,3968,1000,16332,23,314,-286
3931435239,3204,888,16472,36,166,-57
3931436931,3052,816,16412,-30,98,-25
3931438617,3148,740,16112,-88,122,-72
3931440300,3352,968,16164,28,76,-3
3931441984,4328,104,16248,-27,-29,94
3931443725,4460,276,16228,-51,86,-110
3931445424,3668,1148,16512,-20,208,-158
3931447132,3952,920,16340,-10,44,44
3931448837,4108,332,16356,-53,20,152
3931450542,3836,-684,16208,69,258,-166
3931452252,3736,532,16408,163,127,-248
3931453986,3028,780,16248,99,-11,-81
3931456571,3228,1728,16596,6,164,-118
3931458296,3976,1736,16212,-19,36,80
3931460033,3856,868,16192,-122,21,103
3931461743,3680,528,16356,-101,49,5
3931463450,3616,672,16648,2,93,-160
3931465185,3292,604,16612,-64,-48,61
3931466908,3808,372,16352,-28,67,-134
3931468614,4216,808,16048,-2,108,-137
3931470312,4824,664,15812,48,120,-161
3931472048,3444,1068,16192,-10,120,-288
3931473755,2864,1464,16584,-16,106,-279
3931475463,3108,2032,16672,-47,11,-46
3931477167,4140,1396,16432,-164,-51,264
3931478869,4104,348,16468,-200,15,172
3931480565,4152,584,16376,-77,11,-160
3931482259,4060,756,15920,-78,-27,1
3931483954,3912,712,16088,-166,107,42
3931485719,3952,208,16072,-167,141,44
3931487435,3916,564,16000,-62,61,-292
3931489154,4160,928,16036,-122,17,-64
3931490864,4104,680,16648,-103,162,-134
3931492572,3984,564,16444,-74,121,-139
3931494338,3552,636,16272,39,79,-340
3931496189,3800,1672,16440,-129,66,-86
3931497912,3916,868,16404,-103,53,69
3931499650,3756,904,16340,-105,13,34
3931501360,4196,408,15676,-126,32,-6
3931503056,4372,1056,15832,-78,169,-79
3931504751,4680,1284,15840,-109,123,-27
3931506517,4532,276,16124,-143,155,67
3931508234,3900,-664,16140,-97,257,-61
3931509949,3764,-472,16544,48,160,-315
3931511668,3680,448,16548,68,132,-351
3931513387,3988,1036,16052,-11,174,-81
3931515102,4364,1588,15880,-4,197,-130
3931516844,4152,916,15940,-48,82,-59
3931518562,4048,916,16188,-36,135,-168
3931520278,3552,1156,16312,-75,178,5
3931521995,3496,1096,16232,-103,77,-20
3931523711,3708,1136,16340,-154,62,108
3931525423,3984,-440,16148,-65,161,126
3931527163,4516,-72,16092,39,228,-162
3931528881,4204,420,16256,65,245,-225
3931530593,3800,584,16496,54,289,-264
3931532309,2940,820,16580,30,187,-101
3931534025,3164,1132,16328,2,60,-152
3931535739,3260,1500,16368,-49,64,-45
3931537480,4020,636,16224,-30,151,105
3931539196,3960,644,16356,-56,50,-49
3931540907,3824,1140,16096,-69,107,-129
3931542623,3452,1352,16804,-97,183,-85
3931544341,3852,152,16576,-58,28,210
3931546055,3792,-984,16220,46,25,-26
3931547771,4072,-980,16404,211,225,-276
3931549488,3952,52,16424,234,234,-346
3931551199,3776,2352,15624,111,68,-192
3931552914,4220,2584,16352,-66,160,-10
3931554630,4500,2532,16604,-142,235,47
3931556342,3088,328,16340,-75,-11,136
3931558119,2864,136,16640,-20,-30,-161
3931559836,3576,668,16556,-77,40,81
3931561549,3860,696,16196,-37,40,103
3931563257,4600,180,16128,-53,11,103
3931564970,4600,48,15980,47,143,-272
3931566681,3936,592,15972,92,160,-341
3931568417,2980,1360,16264,55,116,-315
3931570131,3204,2644,16632,-107,27,8
3931571842,4208,624,15784,-66,71,268
3931573552,4552,-104,16452,-58,139,-37
3931575264,3784,1156,16928,-141,-90,-211
3931576977,3532,540,16188,-73,13,1
3931578710,3832,1676,15768,-128,88,67
3931580425,3828,920,16272,-189,-34,164
3931582138,3844,452,16184,-187,22,-95
3931583847,4784,376,15620,-76,48,-19
3931585560,4860,652,15848,-74,124,-197
3931587271,4204,720,16324,-170,128,-60
3931589009,3712,64,16264,1,192,-290
3931590722,3384,948,16496,-22,39,-191
3931592433,3492,936,16500,-68,11,-143
3931594141,3560,1704,16544,-122,15,-9
3931595853,4088,648,15788,-81,-14,44
3931597565,4168,848,15728,-105,-5,-54
3931599298,4664,1156,15752,-188,74,16
3931601023,4920,256,15620,-156,229,138
3931602744,4300,-464,15884,-116,189,-19
3931604457,4132,-676,16004,-45,240,-149
3931606173,3556,308,16676,45,260,-296
3931607883,3560,384,16448,35,138,-97
3931609619,3588,1624,16224,0,170,-217
3931611370,3740,1520,16484,-51,158,-75
3931613084,4128,1196,16020,6,96,-88
3931614793,4504,1356,16048,-109,34,-42
3931616503,4436,1384,15740,-135,117,-81
3931618217,3672,984,16040,-129,256,160
3931619951,3684,-612,15984,-54,104,102
3931621663,3812,68,16320,-29,192,-172
3931623377,3888,284,16276,8,248,-146
3931625092,4192,728,16620,79,243,-61
3931626802,3692,652,16404,-3,153,-167
3931629643,3444,1392,16344,-16,164,-53
3931631478,3416,1040,16532,-55,87,56
3931633188,3364,644,16340,-86,45,-18
3931634887,3644,376,16236,-44,97,1
3931636582,3956,524,16220,1,41,-37
3931638278,4060,648,16472,-39,46,-51
3931639974,3952,660,16416,-19,149,-76
3931641759,3940,280,16172,32,138,89
3931643469,4052,-376,16016,61,93,49
3931645182,3948,236,16268,103,182,-340
3931646891,3268,900,16340,127,204,-148
3931648641,3448,1780,16192,40,23,5
3931650353,3504,1676,16500,-79,-24,33
3931652151,4088,1272,16240,-64,94,-11
3931653874,3656,540,16416,-42,38,74
3931655593,3700,380,16404,-37,-5,-104
3931657311,3560,876,16456,-62,53,-155
3931659021,3488,672,16140,36,75,-9
3931660730,4192,840,15828,-23,-14,13
3931662467,4500,628,15860,-55,24,-108
3931664189,4416,1140,16300,30,245,-286
3931665897,3168,908,16704,3,25,-106
3931667606,3072,1340,16444,-73,-21,-80
3931669371,3476,1400,16272,-127,50,-31
3931671215,4092,1128,16248,-78,46,70
3931673117,4088,684,16372,-145,-60,-30
3931674837,3924,636,15788,-126,51,-100
3931676537,3540,1256,16216,-110,76,4
3931678229,3720,660,16448,-168,-7,110
3931679930,3896,428,15960,-155,89,-145
3931681636,4188,516,15980,-62,76,-115
3931683399,4436,444,15920,-24,66,-133
3931685107,4268,420,16208,-121,116,-83
3931686818,3728,696,16124,-10,206,-347
3931688522,3668,1932,16324,-70,25,-118
3931690218,3748,1512,16524,-145,-50,114
3931691921,3776,452,16360,-146,102,52
3931693642,3868,528,16056,-74,9,-82
3931695359,4140,624,15888,-66,-31,-86
3931697075,4388,956,15816,-175,114,-12
3931698776,4960,464,15652,-134,181,42
3931700473,4344,-200,16116,-95,153,-35
3931702174,4024,-740,16044,-52,175,-94
3931703898,3788,-20,16344,54,286,-368
3931705603,3652,1172,16396,55,128,-208
3931707330,3760,1560,16208,19,111,-89
3931709048,3928,1188,16120,-106,229,63
3931710743,4308,916,16152,-47,180,-107
3931712439,3984,1200,16060,-86,94,-28
3931714213,3788,776,16272,-117,70,63
3931715928,3536,460,16424,-79,222,33
3931717639,3468,-60,16424,-16,81,3
3931719384,4112,268,16328,-25,140,-93
3931721118,4472,388,16100,-38,247,-88
3931722830,4588,484,16044,38,253,-210
3931724542,3232,896,16276,3,228,-183
3931726243,2964,736,16296,25,239,-138
3931727932,3032,1392,16616,-6,100,-141
3931729625,3620,988,16472,-81,30,120
3931731317,3812,404,16424,-45,98,155
3931733018,4296,-132,16152,11,81,-7
3931734784,3792,792,16176,33,36,-244
3931736494,3960,1880,16452,-105,233,48
3931738207,3484,784,16668,-85,112,212
3931739917,3940,-468,16056,23,59,32
3931741628,3776,-1204,16240,170,140,-311
3931743336,3892,1004,16624,165,195,-324
3931745068,3536,1632,16440,84,91,-153
3931746774,3504,2216,16492,-21,67,-40
3931748486,4156,1880,16292,-107,104,95
3931750197,4084,1044,16360,-100,72,112
3931751906,3332,496,16248,-46,28,-63
3931753614,3340,124,16544,-42,58,-23
3931755334,3572,772,16048,-16,12,69
3931757165,3896,420,16108,-37,-36,95
3931758931,5080,568,16232,1,119,-68
3931760650,3992,432,16108,32,145,-242
3931762369,2912,1536,16244,41,89,-341
3931764082,2928,2032,16620,-19,29,-254
3931765794,3612,1436,16484,-102,35,246
3931767543,4244,292,16684,-109,118,-91
3931769315,3940,720,16724,-156,-112,-133
3931771098,4024,760,16036,-140,-78,-55
3931772834,3812,724,15644,-49,38,83
3931774541,4076,964,15996,-124,112,-146
3931776339,3456,932,16264,-136,60,-89
3931778039,4060,1024,16064,-70,67,-51
3931779749,4472,948,16264,-148,5,-42
3931781468,4364,284,16296,-160,123,-71
3931783167,3936,76,16224,-106,245,-143
3931784860,3640,216,16276,38,92,-206
3931786629,3476,912,16316,-58,15,-204
3931788335,3732,1324,16448,-69,31,41
3931790038,4092,1108,16224,-73,15,72
3931791733,4272,1088,15796,-163,-6,-33
3931793428,5072,1464,15624,-209,161,-69
3931795132,4940,1240,15760,-218,263,8
3931796905,4288,-660,15948,-157,175,158
3931798626,3588,-976,16452,-21,195,-259
3931800342,3500,-96,16428,113,240,-290
3931802876,4028,1160,16244,84,127,-139
3931804601,4680,1796,15916,-22,158,-94
3931806318,4204,1572,15924,-24,290,-86
3931808210,3592,1132,16100,-47,68,-36
3931809985,3556,1132,16276,-109,61,-83
3931811685,3384,1312,16300,-176,144,52
3931813388,3784,-28,16236,-86,87,216
3931815094,4124,-576,16004,-82,51,145
3931816797,4808,-528,15984,-8,207,-212
3931818521,4180,600,16328,121,400,-300
3931820222,3004,652,16380,58,200,-155
3931821917,2904,1056,16296,19,150,-216
3931823611,3148,1636,16412,-45,174,-62
3931825309,4200,1500,16088,-16,99,124
3931827008,4196,916,16584,-86,87,117
3931828774,3764,332,16364,-89,63,-138
3931830484,3148,1100,16492,-39,75,-55
3931832201,3568,252,16308,-84,-45,168
3931833914,4112,-28,16312,-65,16,119
3931835626,3972,-992,15992,113,176,-56
3931837338,4396,-296,16012,244,143,-362
3931839070,4336,824,15964,153,132,-404
3931840784,3728,1828,16220,38,248,-187
3931842498,3464,2700,16148,-53,186,64
3931844211,3404,640,16364,-112,-38,137
3931845924,3548,676,16416,-79,-19,-73
3931847636,3620,196,16888,-18,58,45
3931849371,3764,784,16188,-5,-4,-5
3931851090,3960,136,16136,-55,7,45
3931852805,4060,368,16228,21,83,-99
3931854515,4652,788,16048,3,70,-46
3931856255,3936,720,15704,34,133,-264
3931858035,3432,1220,16256,24,168,-326
3931859790,2892,1648,16592,6,58,-139
3931861554,4068,1152,16360,-76,-59,79
3931863275,4144,844,16680,-169,129,-124
3931864988,3708,1048,16508,-150,105,-138
3931866694,3416,876,16404,-117,-114,45
3931868408,3936,856,15992,-103,-42,1
3931870143,3748,964,16296,-191,170,-24
3931871853,3604,436,16092,-114,130,-27
3931873569,4196,904,15788,-97,-42,-40
3931875286,4364,228,15884,-132,83,-86
3931876998,4400,308,16148,-69,194,-187
3931878709,3972,488,16536,-54,130,-168
3931880445,3572,824,16384,-54,89,-247
3931882156,3560,1352,16708,-57,92,-131
3931883867,3892,1300,16440,-90,20,21
3931885579,3880,764,15944,-147,-10,23
3931887288,3972,352,15872,-144,118,-17
3931888999,4356,968,15720,-87,46,-76
3931890733,4576,972,15720,-152,-17,50
3931892444,4852,228,15832,-172,231,11
3931894154,4092,-372,16380,-19,279,-51
3931895893,3896,-564,16404,62,200,-188
3931897626,3632,492,16280,29,141,-280
3931899345,3808,1312,16220,15,236,-171
3931901142,4152,1536,16008,-44,131,56
3931902844,4228,1128,16116,-79,51,60
3931904540,4424,920,16200,-81,204,-157
3931906235,3704,1224,16228,-43,159,-62
3931907927,3468,580,16416,-105,41,39
3931909624,3580,520,16212,-149,110,51
3931911375,3660,-92,16220,-39,210,-11
3931913083,4156,500,16144,33,133,-111
3931914832,4448,348,16340,6,98,-54
3931916566,4388,800,16220,2,349,-249
3931918285,3308,704,16392,59,227,-139
3931920035,2868,1080,16380,10,83,-125
3931921785,3064,1176,16504,-67,84,-76
3931923501,3608,912,16544,-15,128,92
3931925212,4116,308,16420,-27,20,98
3931926922,4124,-72,16068,-25,57,-99
3931928632,3844,556,16300,0,202,-223
3931930340,3816,1760,16368,-17,88,-3
3931932102,4228,388,16040,-61,56,160
3931933816,4164,-296,15956,-24,141,60
3931935533,3840,-788,16360,169,181,-337
3931937244,3512,988,16504,108,58,-323
3931938952,3440,1412,16392,27,170,-65
3931940661,3180,1788,16544,59,138,-100
3931942393,3872,1620,16464,-70,-50,38
3931944106,4000,1376,16412,-107,22,-9
3931945818,4180,1212,16272,-104,146,39
3931947528,3624,632,16140,-43,70,-9
3931949236,3328,284,16444,-99,-9,61
3931950945,3840,-20,16356,3,123,-66
3931952677,4004,408,16340,72,66,-125
3931954387,4724,540,15752,29,42,-156
3931956097,3736,1592,16012,-7,185,-305
3931957809,2860,1480,16776,4,26,-177
3931959516,3192,1596,16564,-57,-41,-43
3931961223,3928,788,16548,-197,3,109
3931962933,3824,528,16488,-84,58,-87
3931964642,4088,748,16380,-86,-59,-73
3931966350,4304,624,15656,-64,-44,-25
3931968085,3968,1028,16028,-131,204,-18
3931969794,3732,872,16080,-101,74,-148
3931971504,3884,1524,16000,-106,19,-161
3931973236,4156,1016,16248,-197,60,18
3931976115,3840,-148,16488,-97,32,-48
3931977869,3784,-216,16368,1,35,-288
3931979586,3960,504,16556,-17,122,-288
3931981297,3440,984,16500,6,31,-72
3931983007,3936,1276,15960,-112,-53,-43
3931984718,4144,1276,15948,-165,-50,7
3931986418,4712,1200,15872,-157,171,-45
3931988112,4608,1372,15996,-210,147,31
3931989805,4004,-232,16324,-180,150,56
3931991497,3864,-488,16000,-135,240,13
3931993191,3624,-1124,16508,7,186,-156
3931994884,4000,356,16372,70,111,-204
3931996587,4136,548,16356,61,159,-122
3931998294,4728,1352,15736,86,259,-162
3932000029,4240,1528,16204,-16,162,-144
3932001739,3452,1408,16324,-60,171,-40
3932003449,3136,1272,16472,-91,133,-42
3932005186,3316,1232,16484,-182,44,68
3932006895,3584,376,16516,-174,56,182
3932008604,4168,-396,16176,-128,102,273
3932010315,5296,-736,15912,-3,249,-167
3932012051,4108,216,16284,88,305,-360
3932013762,3104,756,16548,87,296,-222
3932015498,2708,1152,16300,70,259,-132
3932017210,3212,1448,16248,27,76,-99
3932018931,3804,1824,16092,-33,44,87
3932020761,4232,656,16708,-92,152,62
3932022616,3276,924,16412,-84,10,-137
3932024381,3116,1200,16448,-87,-18,-65
3932026197,3512,220,16252,-102,32,188
3932027915,3924,-964,15976,-6,95,86
3932029615,4072,-1444,15968,96,97,-93
3932031298,4224,4,16332,222,173,-427
3932032993,4220,1424,15688,139,194,-190
3932034686,3452,2576,16348,21,176,-183
3932036428,3632,2664,16296,-69,139,1
3932038129,3012,896,16336,-83,80,163
3932039830,3004,340,16684,-13,-22,-51
3932041526,3304,532,16956,-8,-89,-98
3932043229,4004,1068,16432,-96,4,156
3932044928,4256,-116,15828,-28,79,99
3932046682,4312,416,16220,32,0,-185
3932048397,4148,404,16024,20,21,-226
3932050114,3580,1208,15820,44,215,-240
3932051824,3196,1728,16412,-21,80,-162
3932053546,3228,1744,16228,-44,-18,-82
3932055264,4416,820,16152,-99,105,120
3932057042,4092,700,16728,-80,163,-310
3932058750,3344,1348,16368,-163,-95,-38
3932060449,3096,972,16412,-132,-70,-8
3932062143,3920,1376,15888,-92,34,181
3932063858,3916,152,15968,-153,-7,-39
3932065570,4444,1108,15852,-150,42,-83
3932067324,4612,884,15904,-153,86,31
3932069081,4132,144,15932,-100,115,-36
3932070795,4140,200,16204,-83,119,-302
3932072504,3788,552,16316,-42,197,-302
3932074211,3656,780,16532,-8,113,-122
3932075922,3672,884,16684,-80,-49,-171
3932077661,3896,1368,16232,-121,25,-104
3932079372,3888,1212,16008,-116,93,-9
3932081085,4384,692,15896,-138,4,55
3932082797,4448,712,15668,-173,71,-14
3932084505,4752,712,15656,-84,214,-4
3932086216,4752,608,15912,-107,222,21
3932087955,4100,-476,16388,-47,202,-76
3932089707,3508,324,16724,8,271,-203
3932091419,3428,268,16756,14,212,-118
