Time_us,Accel_X,Accel_Y,Accel_Z,Gyro_X,Gyro_Y,Gyro_Z
766455500,-3180,-920,15564,7,124,-374
766457351,-3644,-2472,15556,31,342,6
766459083,-3144,-1260,16008,76,363,-871
766460800,-3176,-32,16404,0,410,-681
766462582,-3800,-800,16508,-125,469,-80
766464407,-4796,-1408,16500,-23,370,-693
766466230,-3788,-88,16000,65,253,-620
766467927,-5272,-112,16744,-26,295,-90
766469607,-4776,-1104,16632,18,86,7
766471336,-4920,-836,16428,192,-108,-649
766473083,-3296,1100,16500,129,-56,-411
766474781,-3716,1180,16324,36,71,-15
766476554,-4408,-760,15772,-80,-131,235
766478256,-4292,-892,16188,-5,-173,-549
766480042,-2292,1492,16352,-41,85,-211
766481809,-3648,-1424,16032,-189,152,679
766483530,-4564,-3584,15596,-95,92,346
766485217,-5068,-2580,14452,209,-123,-923
766486971,-1924,1368,15920,144,308,-546
766488680,-3244,1648,16188,-114,359,210
766490385,-4076,-1604,15900,-359,24,278
766492085,-3552,-1140,15428,-60,426,-613
766493822,-3668,-208,17632,-69,491,7
766495519,-5896,-1000,16888,-109,201,325
766497277,-4964,-2416,16180,67,-113,-320
766498985,-3716,264,16832,32,18,-420
766500697,-3500,256,16864,44,-190,246
766502408,-3536,-940,17032,-19,-176,-160
766504119,-3592,208,16048,-167,-78,-1
766505833,-4796,-2148,14968,-13,-489,150
766507567,-2976,-1868,15312,148,-430,-582
766509276,-2088,1972,16132,-8,102,-290
766510994,-3408,-1396,15860,-205,-179,758
766512746,-2912,-2880,15668,-93,-300,-32
766514545,-1324,1216,14660,-13,257,-997
766516401,-2964,728,15888,-260,444,908
766518222,-3648,-2780,16104,-113,23,-337
766519922,-3012,1692,15512,-149,235,-690
766521624,-2668,1808,15564,-205,227,384
766523334,-2992,-2324,16564,-228,287,353
766525061,-3260,-1660,15760,-122,235,-648
766526836,-3208,788,15508,-99,382,-283
766528612,-2836,604,16436,-167,454,126
766530294,-4420,-1496,16920,-293,299,171
766532077,-4244,-928,16272,-175,73,-566
766533832,-3076,804,16384,-165,194,-97
766535576,-2964,108,17152,-213,83,220
766537304,-3384,-2060,16428,-170,-82,-4
766539037,-2364,-784,15012,-66,108,-541
766540736,-2880,-556,15144,-125,94,194
766542426,-2716,-1984,16000,-33,-10,346
766544115,-1788,-1448,15772,41,420,-759
766545796,-2876,888,16068,-162,363,-61
766547481,-2576,32,15460,-280,259,222
766549239,-2592,-1500,15624,-182,756,-91
766550984,-4312,-2068,16052,-38,537,-136
766552702,-3920,-2472,15976,21,413,-187
766554423,-4524,-964,15544,13,427,-679
766556137,-3800,-444,16440,27,414,-144
766557843,-3704,-1736,17112,35,263,-310
766559618,-3236,-1384,17336,5,261,-654
766561328,-4036,128,15888,-23,183,-440
766563032,-4768,-256,15848,88,232,-149
766564726,-3900,-644,16320,44,28,-268
766566419,-3192,-404,16516,-17,99,-329
766568121,-3000,356,16040,-23,234,-277
766569924,-2584,-296,14772,-44,343,189
766571682,-4000,-1184,15612,24,548,-386
766573384,-4532,216,16092,-22,471,-674
766575079,-3820,1756,15832,-252,268,176
766576778,-4108,-1280,16008,-261,291,487
766578537,-4332,-2276,15904,-105,191,79
766580337,-2992,-1592,15740,171,394,-307
766582052,-4248,-900,17180,30,437,169
766583750,-4828,-976,16676,-29,126,81
766585445,-4904,-824,16384,16,129,53
766587164,-3924,-444,16668,-44,-57,-111
766588855,-3132,-448,16188,-176,34,128
766590590,-3216,-1452,15848,-160,101,312
766592278,-3756,-2196,16284,69,225,-272
766593972,-3888,-608,15312,8,-116,-126
766595663,-3356,-908,15108,-176,334,112
766597356,-3392,-1272,15676,-78,291,39
766599046,-2976,-468,16156,-17,235,-433
766600736,-2916,208,15592,-141,389,41
766602486,-3560,-708,15964,-173,536,232
766604192,-5232,-1704,15516,48,47,-167
766605907,-3292,-568,16036,82,285,-298
766607612,-3692,-124,16928,-26,319,-69
766609318,-3500,-544,16700,-43,26,-74
766611031,-3796,204,15900,-113,237,-228
766612807,-3420,-220,17004,-191,260,156
766614567,-4032,-1012,16196,-174,325,153
766616287,-4640,-1152,15808,0,-59,-385
766617987,-2832,1364,15900,-128,125,-458
766619680,-3312,-244,16388,-318,123,507
766621379,-2996,-1472,15644,-264,66,150
766623103,-2556,-100,15304,-203,345,-502
766624836,-3504,-692,15012,-219,375,398
766626532,-3684,-2112,15752,-94,327,274
766629035,-2900,864,16664,-124,164,-312
766630745,-4068,-752,16172,-332,157,665
766632443,-3912,-2380,15704,-182,52,340
766634160,-2272,-508,16100,-87,172,-768
766635855,-2360,-148,16320,-251,387,269
766637568,-3604,-3052,15252,-172,544,106
766639279,-4616,-3140,15332,-10,385,-420
766640978,-3272,-868,14928,141,170,-660
766642674,-3232,-492,16912,-22,774,15
766644384,-4460,-1100,17632,-19,501,89
766646070,-3156,-1372,15980,18,55,-522
766647747,-2388,300,15852,-3,419,-314
766649426,-2300,-168,16204,3,598,76
766651104,-4432,-2580,16188,51,513,152
766652781,-4012,-2108,15796,261,191,-864
766654462,-4048,-64,15596,293,287,-862
766656163,-3696,672,16268,181,297,181
766657871,-3796,-1556,17288,66,323,46
766659578,-3476,-1364,16844,160,-47,-440
766661288,-2496,-600,15780,226,136,-402
766662997,-3884,28,16272,198,558,-2
766664715,-4712,-1332,16352,124,-5,177
766666438,-4124,-1652,15476,214,-23,-56
766668137,-2992,248,15688,280,353,-393
766669823,-3292,524,16588,175,52,434
766671508,-2980,-424,16344,98,68,437
766673238,-3768,-776,15728,98,372,120
766675005,-4420,-524,15308,242,57,131
766676720,-3172,152,16088,178,179,90
766678389,-3464,-24,16508,55,338,470
766680047,-4068,-3424,15752,190,90,658
766681705,-3564,-2128,15920,472,332,-563
766683361,-3824,-12,16824,426,380,-399
766685022,-4516,92,17568,107,97,718
766686685,-4476,-2584,15984,72,-82,191
766688379,-4200,-2136,15280,188,6,-397
766690089,-3516,-248,16520,278,123,-122
766691800,-4320,-2696,16904,184,153,444
766693508,-4928,-2964,15956,452,-155,-687
766695225,-4140,-608,15680,512,-80,-1046
766696947,-2660,3068,16852,264,157,-91
766698661,-4020,208,16692,-111,57,785
766700368,-4404,-1648,16036,-41,-132,437
766702078,-4388,-968,15376,345,45,-620
766703786,-3908,2084,15628,239,-37,17
766705501,-4488,-744,16108,-148,-140,874
766707218,-4348,-2460,15980,-34,-107,355
766708931,-3996,256,16552,294,-100,-776
766710645,-3432,1748,16008,-70,-39,545
766712368,-3880,-340,16524,-296,55,897
766714189,-5724,-3284,16232,-42,-217,-215
766715962,-4116,-228,16288,192,-273,-787
766717748,-3868,556,16080,-84,-280,179
766719444,-3740,-668,16508,-197,-263,234
766721117,-3780,-1816,15864,-87,-282,-274
766722790,-3368,-584,15720,58,-238,-653
766724461,-3428,1020,15536,-131,-154,-140
766726132,-3208,-76,15996,-237,-76,375
766727854,-4196,-3316,14532,-64,-278,-28
766729561,-2884,-792,14892,244,194,-1193
766731277,-2824,1912,15968,68,402,-950
766732986,-2688,920,16520,-326,374,674
766734697,-4936,-3820,16716,-189,336,-50
766736404,-5348,-3684,16912,58,186,-839
766738232,-4740,284,16400,294,16,-861
766739972,-4496,-176,16900,-53,-116,451
766741728,-4848,-3752,17752,136,-521,-255
766743428,-2676,844,16656,433,-564,-1465
766745125,-1588,3584,16248,252,-455,-772
766746819,-2324,1032,16368,-350,-167,993
766748538,-3772,-3712,15308,23,-286,-173
766750234,-2912,-2432,15488,353,-223,-1060
766751928,-2864,3072,15996,225,-260,-608
766753619,-1360,2076,15880,-368,-85,824
766755315,-2040,76,16004,-458,-36,828
766757009,-1176,-2032,15188,-164,-70,-204
766758772,-1520,988,15784,-50,492,-259
766760493,-3184,-1532,16060,-176,290,910
766762210,-3876,-2928,15840,-106,131,294
766763917,-3296,-864,15840,41,90,-569
766765630,-2496,416,16548,-89,279,314
766767338,-2776,-696,17160,-136,206,629
766769111,-3436,-3284,17204,-120,53,125
766770786,-3584,-2804,16708,129,178,-332
766772437,-5212,-492,16492,279,-85,-441
766774106,-4188,508,16604,117,-372,-404
766775791,-1868,252,16652,-315,89,231
766777489,-3828,-3052,17016,15,-76,-37
766779222,-3108,-2644,15448,270,-201,-823
766780879,-3496,1560,15200,129,27,-482
766782538,-3368,-152,15188,-232,-4,660
766784204,-3340,-1988,15316,-125,216,538
766785871,-5616,-1260,16620,241,-284,-733
766787535,-1044,2716,14884,-60,-188,-245
766789246,-1596,1824,14964,-327,483,734
766790938,-4648,-3624,15792,-128,339,377
766792648,-5524,-1652,16892,255,313,-985
766794355,-5576,1084,16644,41,-226,27
766796091,-4456,848,15576,-142,-15,359
766797801,-4744,-1720,17032,-139,-196,489
766800483,-3944,620,16812,114,-199,-1113
766802201,-3516,2916,16396,-51,-120,-467
766803911,-6456,-1376,15276,-349,-338,1216
766805623,-4628,-2728,16612,66,-455,-1134
766807331,-2596,3624,16872,-38,-361,-316
766809042,-2424,2388,16220,-312,-438,1076
766810756,-2508,-4164,15192,-256,-35,570
766812459,-4212,-612,15372,32,34,-1263
766814155,-3068,1936,15772,-19,-109,-711
766815940,-3684,704,15832,-437,-132,997
766817747,-4508,-3440,15712,-378,19,35
766819454,-4584,-1668,16168,85,-373,-648
766821236,-2860,-252,16108,57,-413,-553
766822918,-2516,-300,16212,-243,-43,452
766824591,-3644,-4088,16188,-59,-138,39
766826262,-3116,-3264,16336,134,-166,-934
766827947,-3256,1692,15940,29,-218,-703
766829748,-3204,332,16028,-263,-234,536
766831602,-2860,-2040,16084,-79,-236,-241
766833330,-1784,-568,14900,119,-372,-623
766835020,-828,300,15144,131,-128,-435
766836702,-2088,264,15412,-68,358,253
766838388,-2832,-2224,15856,-6,183,37
766840109,-2800,-1560,16404,97,195,-601
766841822,-2728,2268,16548,-7,301,-423
766843526,-3380,1300,16476,-383,115,695
766845252,-3124,-2356,15940,-331,259,204
766846949,-3736,-2788,16916,-168,329,-240
766848641,-3992,-1004,16312,125,-132,-459
766850332,-2868,-80,15408,-106,-103,125
766852201,-2792,-1136,15984,-222,48,290
766853938,-3120,-2204,17024,-60,171,-355
766855664,-2784,684,15568,81,-34,-556
766857391,-3036,-616,15672,-194,292,549
766859110,-4440,-2544,16508,-167,253,409
766860831,-3952,-1216,15796,162,-138,-965
766862625,-2100,2540,16048,-107,124,-94
766864375,-3176,-1816,16692,-341,123,958
766866110,-3624,-3512,15780,-190,117,157
766867811,-3544,-776,15832,72,379,-912
766869514,-4536,520,16240,-65,-128,221
766871218,-3256,-1700,15808,-173,225,171
766872989,-3644,-2220,16016,-87,248,-4
766874667,-3256,-2276,16652,155,-1,-437
766876350,-3780,56,16592,94,295,-361
766878019,-3980,-28,16236,42,371,141
766879670,-5468,-1728,16064,12,11,33
766881320,-4192,-32,16600,84,-25,-745
766883026,-3888,1400,16744,40,6,-450
766884715,-3312,56,16288,-58,-111,603
766886414,-4160,-1796,15744,33,-121,-241
766888112,-3604,-496,16100,80,-42,-681
766889803,-4348,1712,16116,-23,-113,189
766891497,-3676,-116,15504,-239,-282,438
766893193,-3436,-1328,15684,-157,-33,180
766894909,-3568,-1072,16096,-87,-3,-150
766896631,-2196,1168,16040,-95,165,-167
766898346,-3788,-764,16388,-375,279,964
766900110,-4800,-2876,15572,-315,211,715
766901963,-4784,-1584,16148,5,181,-687
766903898,-3184,884,17028,-215,-28,385
766905672,-4140,-3316,16616,-293,39,700
766907389,-4136,-2516,16360,91,-84,-997
766909094,-3668,44,16232,106,-140,-1013
766910786,-3368,1080,16112,-253,-169,423
766912479,-4224,-2424,16280,-201,-28,123
766914164,-3360,-1636,16464,23,-176,-691
766915874,-3288,256,15720,-25,-204,-708
766917635,-2368,188,15600,-197,36,321
766919348,-2932,-2976,15572,-45,186,72
766921038,-3428,-2336,14980,66,120,-651
766922723,-3172,1148,15204,49,-58,-705
766924406,-2672,476,16252,-188,262,395
766926103,-3756,-1288,16808,-181,189,410
766927806,-3348,-1480,16196,-55,-100,-650
766929506,-2720,984,16532,-129,169,-373
766931201,-2416,284,17392,-305,200,14
766932902,-2804,-752,16520,-282,211,146
766934603,-3224,-2056,15932,-102,260,-431
766936305,-3756,612,15740,20,89,-559
766938015,-2640,1260,15872,-37,-2,-138
766939754,-2844,516,16312,-251,167,303
766941509,-3168,-1464,16124,-204,65,231
766943239,-2512,-248,15264,20,63,-401
766944961,-2032,1020,15632,-58,132,-193
766946685,-2640,-1100,15820,-348,417,925
766948391,-3576,-3476,16280,12,425,-300
766950082,-3160,720,15504,-50,127,-466
766951783,-2276,548,15736,-202,336,417
766953491,-4628,-3116,16404,-219,442,388
766955205,-3140,-1832,15720,65,168,-870
766956941,-2740,-376,16384,31,336,-647
766958641,-3416,-1288,16184,-153,314,296
766960344,-4504,-2280,15924,69,207,-550
766962055,-2836,-108,15680,130,236,-570
766963765,-3700,612,16384,-14,300,-327
766965518,-2552,-160,16200,13,181,100
766967332,-3700,-80,16204,64,166,-101
766969017,-3264,72,15324,61,98,51
766970691,-3560,48,16076,-2,411,45
766972952,-3312,664,16436,60,88,147
766974635,-3432,532,15464,-150,150,386
766976338,-3256,-80,15768,-158,392,220
766978098,-3648,-924,15824,-142,379,645
766979765,-3980,-2472,16040,-141,359,752
766981457,-5400,-2964,15604,79,383,-311
766983156,-4992,408,16532,10,242,-157
766984829,-4592,224,17156,-173,77,369
766986491,-3632,-1512,16708,-278,221,86
766988226,-4104,-1372,16308,-163,86,-127
766989921,-3436,-1488,15560,-143,85,-66
766991618,-5952,-2048,16384,-27,251,-213
766993312,-4708,-724,15784,64,-348,-442
766995005,-3412,132,15140,-70,-131,-290
766996698,-3324,-68,16144,-129,-83,151
766998449,-1920,-1000,15936,20,237,-110
767000154,-3228,-508,15580,-112,427,-117
767001864,-4256,-584,15068,-104,407,-14
767003572,-5712,-624,15864,37,246,-51
767005279,-3260,-140,16488,12,256,-43
767007008,-4684,-296,16788,-192,-123,258
767008769,-3484,-1396,15516,-116,-238,336
767010553,-4008,-1404,16064,3,680,-294
767012306,-4632,-792,17704,-122,-185,-171
767014031,-5268,-1264,17468,-180,-153,-221
767015753,-5488,-988,16148,-112,-233,-425
767017469,-2956,4,15948,-52,-289,-349
767019240,-2736,-984,16788,-119,-348,-148
767020995,-1036,-212,14880,-88,194,-569
767022685,-2144,616,15032,-124,329,-301
767024342,-1872,-124,14796,-157,21,193
767026001,-3648,8,15912,-317,491,-165
767027655,-3760,-108,15760,-245,211,116
767029362,-2732,-424,14872,-167,319,-179
767031059,-3152,220,16144,-262,338,53
767032776,-2032,-904,16932,-284,369,286
767034494,-3212,-2056,16152,-99,322,-159
767036217,-2852,-720,16244,-47,421,-238
767037933,-5036,-1532,16992,-103,197,382
767039679,-4400,-1996,16500,-45,-18,73
767041432,-2872,-684,17212,-82,179,-267
767043179,-3348,-936,16940,-113,-195,57
767044908,-1728,-760,15536,-43,17,-220
767046631,-2520,-476,16132,-51,469,164
767048348,-2996,-2080,15480,-82,205,1
767050142,-3672,-496,14732,81,371,-506
767051838,-2736,680,14860,82,420,-265
767053522,-2568,116,16156,-153,432,523
767055222,-2304,-1624,15884,-92,420,-10
767056916,-2244,240,15272,89,838,-107
767058599,-2912,312,15356,32,841,347
767060283,-5668,-1892,16968,-123,487,514
767061988,-4712,-1404,15668,61,337,-476
767063769,-3732,504,15696,80,418,-415
767065584,-3564,-396,17756,-114,310,779
767067334,-3420,-3420,17440,18,328,-81
767069060,-4164,280,16256,53,329,-578
767070866,-4128,828,16120,14,164,100
767072560,-4760,-428,16144,-81,73,226
767074246,-3140,-780,15432,-98,68,102
767075927,-2820,-1580,15332,-2,86,82
767077621,-2540,-1348,15328,83,194,-179
767079397,-2940,-940,14912,122,621,171
767081450,-4388,-1784,16028,126,527,90
767083175,-4160,152,16292,2,471,-249
767084874,-4788,328,16052,-123,416,519
767086625,-4076,-1024,16304,-49,348,608
767088399,-4416,-2544,17080,54,472,54
767090188,-4292,-1720,16292,224,270,-284
767091940,-6116,-168,17052,195,300,50
767093626,-6116,-612,17612,97,-93,306
767095316,-5008,-2232,16400,100,-344,99
767097007,-3912,-736,16920,237,-101,-541
767098763,-3440,540,16492,251,-199,-343
767100557,-2632,-132,16572,44,1,360
767102378,-5108,-2560,15684,61,-101,224
767104099,-3632,-1916,14608,384,-41,-534
767105806,-3140,-176,15176,365,112,-592
767107508,-2660,1512,16128,98,45,87
767109494,-3060,-800,15820,-44,261,497
767111322,-3684,-1380,14572,92,218,-331
767113166,-4108,864,16208,136,305,-299
767114871,-4064,-516,16776,5,168,549
767116549,-4520,-1592,16236,-23,176,250
767118228,-4484,-492,16384,161,-48,-514
767119977,-2796,1056,16896,29,224,240
767121749,-3204,124,17240,-80,300,643
767123509,-4000,-2380,17364,-7,-15,110
767125203,-3408,-208,16604,166,20,-423
767126943,-3816,1084,15808,44,-49,389
767128704,-3416,200,16308,-88,-124,531
767130413,-3124,-280,16560,-235,-252,81
767132083,-2576,-1692,15704,-75,-104,268
767133825,-2288,-992,15592,116,-111,-344
767135511,-2284,-44,15012,-16,-84,-82
767137195,-2636,-2048,14948,-133,73,599
767138882,-2792,-2676,15972,246,220,-331
767140590,-2980,-1172,16300,313,66,-570
767142298,-1852,1164,16076,29,146,-23
767144065,-3380,-628,16172,-207,254,612
767146422,-2580,-2764,15740,148,227,-234
767148119,-3860,-980,16904,296,53,-219
767149805,-3312,-752,16228,269,-149,-167
767151494,-2684,512,15628,212,-19,-287
767153178,-3200,-316,16384,127,-201,460
767154866,-1740,-1088,15592,261,-94,-304
767156567,-1636,352,15268,221,321,-471
767158264,-4016,48,16116,-57,365,684
767159965,-4364,-2688,15236,127,271,-117
767161759,-3736,1040,16404,164,454,-691
767163512,-2924,1812,16500,4,479,87
767165325,-4764,-1068,17104,-284,225,530
767167044,-4844,-1916,15180,-25,314,-511
767168734,-5460,320,16348,48,259,-329
767170422,-5916,404,16688,-80,-9,71
767172115,-6064,-1240,16440,-139,-219,-13
767173813,-4796,-1060,16800,112,-288,-367
767175514,-4376,-696,16716,168,-352,-250
767177210,-4368,-836,16860,112,-232,-148
767178904,-4180,-124,16436,-50,-64,-78
767180636,-4880,-760,16252,-14,-89,235
767182328,-5228,-1064,15328,107,-428,-346
767184069,-3756,1052,15144,-78,-122,-146
767185839,-3832,-1260,15068,-154,-200,494
767187606,-3276,-2600,15468,-43,-149,95
767189324,-4384,-1384,15644,161,-121,-620
767191033,-3924,488,15968,44,-17,-41
767192748,-5492,-1436,16308,-116,-262,233
767194463,-5156,-1984,16424,-51,-383,-258
767196172,-4208,-352,16696,112,-278,-601
767197878,-3172,72,17084,4,-293,-56
767199583,-3400,-488,16880,-107,-268,96
767201304,-4752,-2492,16700,13,-395,-60
767203027,-4352,-644,15720,266,-551,-909
767204737,-2404,2448,16504,-36,-571,-187
767206448,-2816,1448,16304,-247,-567,443
767208184,-2668,-2448,14960,-144,-627,158
767209985,-2252,-704,14740,148,-180,-958
767211765,-2304,1688,15124,-110,-348,-56
767213586,-2044,-740,15672,-352,198,142
767215464,-3096,-1500,16452,-277,170,-106
767217263,-2544,-1100,14832,-72,-155,-489
767219060,-1964,444,15832,-290,617,-191
767220908,-4392,-2164,16440,-224,298,470
767222727,-3944,-2984,16976,99,156,-898
767224497,-4084,-1032,17580,93,271,-1054
767226290,-5144,364,17796,3,-240,1
767228208,-4268,80,16824,-101,-482,-428
767230006,-3692,-408,18064,-186,-588,-94
767231747,-3684,-1504,15980,24,-851,-396
767233492,-2560,-892,15104,93,-802,-629
767235262,-984,708,14744,-76,-252,-171
767236968,-2116,-1728,15016,-157,46,417
767238728,-1516,-1284,15164,229,27,-939
767240408,-1272,1776,15480,67,234,-1086
767242111,-2136,2460,15000,-496,235,866
767243814,-2708,-2780,14756,-373,469,490
767245499,-2952,-3280,15544,-115,446,-323
767247170,-2696,-924,16888,82,346,-575
767248894,-3956,-568,16532,-9,291,253
767250560,-4328,-1412,16704,-24,184,205
767252228,-4496,-1224,17328,-43,85,-225
767253881,-4184,-400,17448,0,-317,-122
767255579,-2304,-148,16768,-93,-86,166
767257271,-2684,-1768,16828,-85,23,549
767258960,-4300,-2792,16256,146,-179,-494
767260638,-3444,864,15136,191,-131,-602
767262351,-2936,1744,15532,32,-98,-59
767264103,-2836,-660,15776,-196,-244,496
767265884,-2228,-1708,14740,-44,-3,-324
767267656,-2396,916,15080,-2,256,-456
767269552,-2988,-152,15888,-227,218,472
767271322,-3816,-1492,15868,-213,280,287
767273090,-3844,-652,15820,15,260,-535
767274880,-3588,304,16532,-45,149,187
767276622,-3872,-1240,16336,-3,148,220
767278367,-3856,-1064,16084,64,297,-74
767280146,-4764,-244,16548,17,184,222
767281865,-4920,-616,16620,-39,-182,187
767283578,-3916,928,16212,-161,-47,167
767285297,-3568,56,15800,-190,41,754
767287065,-4508,-3644,16564,-70,68,298
767288824,-5060,-1584,15984,146,-269,-746
767290643,-3308,628,16000,-11,-30,104
767292370,-3708,-60,16104,-188,39,439
767294095,-3696,-2532,16144,-169,-224,97
767295815,-3500,-1120,15728,23,30,-824
767297556,-3172,808,15704,-121,93,-113
767299299,-3960,-464,15600,-194,67,340
767301067,-4552,-2340,15904,-59,-6,-487
767302744,-3532,568,16456,15,-36,-725
767304408,-3468,1332,16324,-69,-130,-221
767306067,-3392,-728,16176,-142,-206,282
767307725,-3576,-892,16384,-36,134,-419
767309383,-4176,-4,16576,-42,13,-386
767311097,-3924,88,15848,-54,-351,42
767312798,-3616,140,15880,-90,-94,-19
767314509,-3508,-692,16708,-195,1,33
767316221,-4052,-916,16504,-214,-190,0
767317929,-3248,-1104,15664,-189,-176,-213
767320863,-3596,-692,16108,-187,-62,172
767322801,-3372,-2536,14836,-139,-91,-155
767324578,-3264,-360,15784,-38,109,-661
767326267,-3044,476,15956,-99,121,-259
767327926,-3212,-752,15644,-310,-96,80
767329586,-2572,-1204,15976,-280,247,-361
767331244,-2928,-1196,16432,-160,342,-297
767332902,-3608,-1360,15936,-55,93,-316
767334583,-3592,-1040,15452,-20,131,-349
767336278,-3356,-1076,16348,-25,251,-318
767337970,-3564,-896,16672,10,129,-260
767339663,-3208,412,16712,19,-62,-548
767341357,-2744,1028,17212,-47,-103,-336
767343090,-2476,-596,16304,-179,94,344
767344833,-3872,-2144,16116,25,-95,-392
767346561,-2532,720,15772,126,-197,-609
767348277,-2184,1476,15904,-1,-31,-98
767349990,-2316,-724,16308,-145,50,437
767351701,-2020,-656,15564,-139,55,-419
767353485,-1688,292,15312,-164,448,127
767355188,-2048,-880,15884,-102,560,416
767356887,-3284,-1940,15872,-24,343,-144
767358581,-3304,92,15784,-91,338,-463
767360277,-3076,840,15784,-155,377,-140
767361981,-3380,-576,16560,-172,390,373
767363801,-3808,-1776,16624,-109,100,-80
767365556,-3664,-1228,16704,-99,299,-113
767367278,-4356,-988,16264,-24,140,-25
767368964,-3924,-796,16556,65,-49,-106
767370644,-3388,-396,16248,-58,6,-111
767372328,-2932,-412,16544,-74,101,-32
767374077,-2748,-388,16212,-54,18,10
767375769,-2932,-756,15668,-59,92,125
767377464,-2824,-1364,14924,56,251,165
767379159,-2884,-1360,15540,49,391,59
767380926,-4132,-244,16492,8,155,-45
767382692,-3056,312,15828,-17,92,188
767384438,-2796,-56,16208,-135,342,311
767386155,-3296,-560,16524,-224,317,351
767387848,-3624,-1428,16132,-135,286,92
767389537,-5552,-1464,16508,81,159,192
767391222,-5028,-1592,16364,92,-59,99
767392905,-4028,400,16296,-163,72,-179
767394637,-3372,-488,16208,-290,15,562
767396428,-3280,-1600,16516,-119,184,-241
767398229,-3480,-608,16676,-174,266,-371
767399982,-5440,-1292,15004,-289,35,441
767401745,-4220,-2200,15264,-66,168,-294
767403456,-3824,660,16520,-26,104,-371
767405183,-3572,904,16868,-127,-57,173
767406889,-3568,-2092,15748,-228,166,388
767408666,-4680,-1444,15132,-60,145,-605
767410441,-3840,256,16080,-56,45,-133
767412157,-4196,-136,16564,-136,138,155
767413845,-4424,-1140,16792,-171,138,-173
767415540,-4196,-628,15696,-130,-208,-233
767417226,-3436,-480,15452,-110,-101,-179
767418899,-3380,-660,16392,-73,375,-154
767420579,-3736,-1128,16872,-116,43,-77
767422254,-4012,-1168,15780,-152,-122,-231
767423999,-3464,-340,15928,-101,125,-438
767425803,-3620,780,16300,-134,13,0
767427486,-2876,-1048,16688,-290,-126,-136
767429148,-2476,-808,16680,-262,-31,-492
767430807,-2584,-408,16184,-186,118,-70
767432467,-2724,-1980,14756,-57,30,-148
767434124,-2208,-1664,15040,-59,199,-493
767435832,-2948,-196,16132,-237,386,-270
767437522,-2496,-1116,15792,-120,264,-36
767439232,-2564,-1168,16200,-106,357,-278
767440952,-3152,-456,16412,-163,248,-279
767442705,-2984,-1148,15652,-134,308,-50
767444451,-2804,-1320,16424,32,246,-438
767446175,-2856,-704,16260,66,186,-458
767447885,-3056,-172,15908,-51,171,-119
767449575,-3040,-104,15832,-114,214,-91
767451251,-2612,-556,16244,-95,213,91
767452940,-3312,-1272,16160,-6,156,-172
767454630,-1808,-256,15036,78,354,-196
767456366,-2468,-544,16176,-29,559,78
767458058,-2908,-220,15936,-75,620,-117
767459760,-3616,28,15072,-23,586,243
767461476,-3840,-464,16532,-65,431,-38
767463189,-3144,-160,17128,-154,426,-56
767464942,-4680,-1152,15872,-112,198,427
767466792,-3340,-876,15220,169,154,-387
767468494,-3760,1104,17380,-118,200,103
767470155,-3728,180,16848,-277,4,557
767471813,-3584,-2092,14288,-235,229,133
767473472,-3288,-1904,14912,-26,597,-161
767475128,-3628,-1832,16456,-26,576,-97
767476826,-3760,-2456,16400,69,461,-219
767478521,-4380,-344,15968,-18,663,-354
767480238,-4156,-360,15584,-96,227,-138
767481950,-3132,-72,15740,-76,455,-319
767483659,-5136,-336,17156,-76,446,194
767485370,-4316,-1096,16036,-16,40,-299
767487107,-4464,-340,16052,39,108,-333
767488819,-4288,-612,15512,44,62,281
767490530,-4192,-792,16788,85,163,-54
767493099,-3716,-124,16252,-48,-66,95
767494819,-3804,-1200,15088,-37,408,163
767496531,-4372,-600,16264,21,343,-289
767498311,-4280,28,16388,-144,170,138
767500050,-4672,-436,15300,-232,184,299
767501750,-4480,-1504,15284,-84,242,-45
767503444,-4204,-1204,16396,45,89,-52
767505137,-4176,-1112,16268,-23,89,-42
767506830,-4196,-472,16304,-38,185,-254
767508581,-4028,276,16400,-133,54,-74
767510292,-3804,-876,16416,-224,93,224
767512047,-3768,-1844,16760,-141,183,59
767513840,-4116,-832,16508,16,-38,-551
767515614,-3184,308,15364,-81,52,86
767517337,-3888,-1848,16016,-30,96,287
767519135,-3492,-2136,16164,104,-28,-177
767520839,-3008,192,15688,30,-31,-338
767522534,-3064,-272,14804,-121,142,370
767524220,-2996,-956,15328,-32,185,-181
767525902,-2552,-320,15664,-79,227,-265
767527586,-2576,-736,15728,-237,403,242
767529331,-3412,-1556,15132,-35,513,-167
767531033,-2976,-1504,16204,56,539,-214
767532744,-4864,-1448,16764,-20,300,-37
767534456,-3596,-1804,16568,141,123,-238
767536167,-4072,-960,17312,189,88,-194
767537877,-3716,-852,17360,180,-216,-163
767539608,-2632,-672,17332,131,-217,-323
767541318,-2392,472,16372,97,-27,-184
767543031,-3000,236,16584,48,-141,96
767544757,-3040,-1716,15388,183,-384,164
767546483,-2492,-616,15468,305,-59,-465
767548194,-1304,492,13956,221,-112,110
767549987,-992,600,13996,179,140,86
767551683,-1352,1340,15956,-38,522,113
767553380,-1704,-824,14492,-129,652,908
767555077,-2456,-2708,14552,-43,878,695
767556772,-4104,-1948,15624,192,967,-532
767558463,-4028,-136,17184,129,886,306
767560157,-4832,-1708,17596,23,608,281
767561865,-5020,-2060,17488,92,491,42
767563576,-5948,-1996,18068,158,331,-153
767565306,-5128,-1252,17060,309,-28,-227
767567053,-5080,-524,17560,291,-20,-214
767568810,-5340,-892,17312,137,-416,285
767570641,-4228,-1212,16112,281,-328,-273
767572319,-2860,936,15724,173,-373,-78
767573970,-2148,288,15496,72,-184,409
767575623,-3836,-2288,14964,219,74,207
767577274,-3292,-1112,13256,431,40,-514
767578922,-2992,276,14360,368,283,-401
767580608,-4220,1432,16360,38,344,285
767582296,-4528,-332,15516,19,87,399
767584246,-3724,-500,15180,-25,279,-259
767586007,-3640,280,16092,-88,593,-228
767587738,-5592,-368,16812,-54,512,479
767589461,-7612,-3164,17992,112,48,195
767591252,-6448,-752,17020,207,-512,-918
767592947,-4756,1636,15640,98,-302,-661
767594628,-5012,424,19036,-125,-240,886
767596311,-5164,-2216,17088,-83,-1098,-294
767597989,-3360,-1316,16012,35,-918,-558
767599666,-5004,-408,14168,76,-708,122
767601348,-2392,-1072,15172,66,-515,-312
767603043,-2736,-208,15744,-15,-455,-391
767604751,-1404,-392,14840,-110,-361,13
767606457,-2084,-404,15300,-30,223,-299
767608166,-3004,372,14844,-196,161,-34
767609871,-3348,-144,15188,-264,239,185
767611584,-3980,-1604,16756,-123,129,-26
767613324,-4636,-1088,17392,-119,-2,-283
767615088,-3768,-1592,15884,23,-303,-217
767616826,-3772,-1044,16968,-21,-16,-406
767618537,-3868,-1516,17624,-73,-481,38
767620251,-3116,-1904,17264,66,-213,-516
767622054,-4420,224,16980,65,-657,-637
767623748,-2748,936,15964,-20,-570,-427
767625437,-3376,316,15932,-243,-542,138
767627119,-440,-1612,14768,-137,-328,-424
767628800,-1572,-928,14800,-58,94,-673
767630480,-2172,-412,14848,59,-365,-242
767632161,-1192,972,14912,-81,91,-500
767633859,-1968,1372,15200,-207,142,-55
767635567,-2032,-1420,16060,-174,355,280
767637275,-3440,-84,16784,-39,59,-536
767638982,-2868,1292,16204,-140,27,-335
767640690,-2900,-408,16240,-270,341,691
767642421,-3340,-2884,16864,-12,232,-191
767644149,-3708,-868,17464,75,124,-293
767645897,-4624,-1052,16564,32,-101,221
767647635,-2872,-1628,16272,58,-63,-246
767649347,-3608,-376,17176,-10,-117,-149
767651054,-2564,-1208,16636,14,-321,-167
767652843,-2604,-608,15752,49,-97,-390
767654552,-2876,-288,15780,-39,-208,103
767656250,-2788,-1504,14620,9,-119,-166
767657982,-2388,200,15228,32,255,-461
767659828,-2228,672,16100,-13,290,-130
767661708,-2864,-264,16088,-71,84,110
767663531,-2556,60,15760,-131,530,-223
767666094,-5024,-604,17500,-74,155,281
767667870,-5172,-768,16504,-33,-97,83
767669617,-4148,-652,16364,-6,35,177
767671315,-4572,-1572,16492,228,-180,313
767672990,-3928,-400,17400,179,-246,-99
767674667,-4036,180,17032,47,-274,181
767676342,-4352,-220,16348,-92,-287,527
767678012,-3624,-1256,15228,-80,-379,225
767679678,-3096,-1132,15428,-88,-74,21
767681347,-4372,-972,15992,-122,9,114
767683014,-3800,-2288,15296,-28,-273,98
767684750,-3572,-2800,14432,3,-73,-27
767686456,-4628,-1172,15180,-59,372,-709
767688179,-3612,260,16084,-96,43,-208
767689893,-3836,-44,16740,-207,134,-78
767691604,-5404,-864,16488,-294,-30,-207
767693318,-5220,-1704,15768,-40,-77,-178
767695063,-5028,-1404,17120,117,-279,-479
767696782,-4504,-696,16668,162,-439,-433
767698501,-3728,-148,16500,82,-377,-62
767700221,-3692,-212,16432,103,-362,-214
767701935,-3660,688,15796,-34,-432,-122
767703649,-3908,768,15320,-106,-443,8
767705393,-2848,-616,15256,-131,-333,243
767707111,-2884,-604,15588,-46,-78,-314
767708829,-3012,524,15628,-83,-55,-416
767710549,-3604,340,15700,-314,-18,503
767712275,-3160,-2504,15848,-133,-6,9
767714065,-3248,-176,16640,-135,186,-436
767715933,-4156,-1624,16892,-298,-10,346
767717655,-4192,-2196,16536,-216,-23,-112
767719368,-4680,-1124,16784,-151,-360,-381
767721057,-3372,-1948,16020,-122,-309,-189
767722740,-3888,-2056,16400,-55,-280,-441
767724427,-1820,-324,15844,-56,-530,-847
767726173,-1348,996,15564,-265,-86,-185
767727863,-1872,-188,15288,-330,154,136
767729605,-4264,-2700,15892,-78,-17,-332
767731328,-2580,156,14980,53,-81,-1137
767733026,-2916,688,16344,-142,41,384
767734722,-3008,-1408,16456,-119,-23,470
767736485,-2236,-552,16252,182,-46,-895
767738182,-2000,2064,16004,-114,-133,214
767739890,-1160,-992,15816,-233,286,411
767741601,-2188,-1280,15656,-135,363,-42
767743308,-2880,-1020,15856,-51,172,32
767745091,-4624,-2232,15808,103,141,40
767746867,-2724,356,16396,79,151,-666
767748621,-2492,1480,16824,-128,198,-77
767750332,-3400,-1696,16980,-248,-69,453
767752061,-1844,-460,15980,-27,327,-808
767753758,-2316,1132,15500,-88,495,-403
767755457,-4372,-2244,15284,-199,27,860
767757186,-4444,-2912,15644,185,276,-1158
767758878,-2788,2140,15756,115,-72,-315
767760583,-2088,1568,16072,-93,41,492
767762289,-3300,-1456,17108,-40,68,289
767763983,-2760,352,16148,-13,177,-347
767765699,-3316,1136,16132,-32,182,161
767767461,-4332,320,15188,-132,10,436
767769171,-3060,548,15748,-210,186,207
767770869,-2952,-648,16292,-99,143,621
767772556,-2904,-1056,15740,-29,163,267
767774233,-3892,-688,16376,85,320,390
767775893,-4420,-1092,15092,-62,-140,595
767777627,-3012,-1320,15044,-123,155,490
767779311,-5548,-1816,18412,-69,77,551
767780994,-2896,-752,15464,-41,-329,-219
767782675,-2128,192,15176,-163,125,43
767784385,-4072,-2796,16888,-357,174,789
767786102,-4332,-4156,16196,8,215,-575
767787863,-5804,-1024,15268,98,-214,-654
767789560,-3896,-316,15152,-19,-251,-334
767791259,-3608,-472,15916,-237,-4,49
767793008,-2652,-1340,15556,-12,139,-434
767794782,-3348,600,15492,9,276,-467
767796522,-3856,736,15900,-82,279,-67
767798241,-5756,-1100,15396,-7,125,117
767799942,-4352,220,16556,83,164,-543
767801645,-4528,1424,17012,19,61,-252
767803527,-3748,524,16700,-162,-256,618
767805305,-3596,-2112,15840,-68,294,289
767807012,-4504,-88,16396,10,31,-545
767808840,-5280,1344,16728,-257,-63,426
767810545,-5924,-340,16236,-333,-223,789
767812238,-4332,-2956,16188,-215,-182,-213
767813924,-3988,-492,16556,-91,-377,-513
767815688,-2984,68,16152,-155,-340,-205
767817419,-2268,-892,16608,-146,30,96
767819186,-2676,-1464,16452,-233,-282,-181
767820868,-2720,-712,14868,-219,125,-306
767822538,-3636,-572,15788,-199,161,-185
767824201,-2476,-1264,15884,-206,-169,-203
767825874,-2372,-588,16504,-362,85,-380
767827542,-2408,-1096,15496,-325,78,-107
767829253,-1976,-2400,15316,-73,480,-473
767830956,-3344,-1612,16604,-4,260,-531
767832672,-2992,-1552,16344,-68,145,-408
767834381,-3420,-1020,16792,-34,368,-547
767836102,-3532,-36,17224,12,-61,-409
767838669,-2628,12,16308,-179,-128,-156
767840452,-2140,-1224,16084,-45,96,-263
767842152,-2588,-876,16208,152,185,-494
767843837,-3420,-252,15716,179,-131,-268
767845519,-2380,584,15432,133,2,-517
767847268,-1840,2432,16284,-143,339,219
767849001,-2416,-696,15980,-212,-54,492
767850726,-1156,448,14600,-27,652,-393
767852413,-1928,1192,15800,-51,812,174
767854095,-3824,-1644,15840,-94,178,587
767855779,-3276,112,15868,35,547,-494
767857463,-3968,1936,16344,-74,523,-166
767859140,-2648,360,16312,-270,204,969
767860904,-3388,-1740,17356,-241,366,264
767862617,-3380,-1184,17052,-222,356,15
767864329,-3632,-1000,16388,-54,413,476
767866039,-4608,-984,16512,-27,70,189
767867752,-3540,-528,17116,-309,188,273
767869460,-3772,-1324,16848,-320,127,567
767871283,-2812,-3272,15380,-45,82,46
767873004,-3592,-1816,15380,97,249,-362
767874675,-3352,-1192,15516,4,277,-136
767876326,-3688,-1580,15592,-166,375,56
767877974,-4336,-1980,15436,-71,216,-201
767879621,-4360,-1612,14976,-22,270,-397
767881312,-3968,-916,16268,18,440,-350
767882991,-3720,-1180,16644,-70,242,-265
767884686,-4168,-1448,15884,1,379,-402
767886380,-4996,-1132,15980,107,393,-412
767888075,-4448,-256,16236,132,247,-297
767889767,-4364,108,16448,-34,149,-298
767891515,-4020,672,16632,-78,201,-390
767893219,-3840,1112,16228,-119,269,152
767894932,-5120,-1052,16496,-86,209,234
767896639,-5048,-524,16344,62,-55,-443
767898348,-4628,996,15696,30,3,-414
767900085,-3964,1208,16244,-114,-118,569
767901816,-3180,-268,16804,-155,-157,314
767903525,-3280,-192,16600,-265,-9,173
767905235,-4000,-876,14772,-266,74,495
767906941,-4028,-1056,15160,-187,219,54
767908649,-3896,-660,16708,-285,284,185
767910364,-4248,-1128,17132,-323,197,307
767912151,-3632,-1928,15464,-280,-170,-41
767913898,-3476,-1432,15168,-189,71,-115
767915661,-2980,-1572,16400,-137,242,-170
767917373,-3188,-1700,16824,-147,154,-134
767919065,-3900,-2104,15852,-151,-202,-320
767920778,-3140,-688,15652,-63,155,-583
767922511,-3348,200,15872,-95,165,-405
767924212,-2316,-948,16528,-248,-68,-9
767925908,-2432,-1208,16732,-195,216,-563
767927603,-2024,-980,15900,36,169,-274
767929296,-2380,-1320,15536,80,188,-221
767930987,-2852,-524,15420,-8,147,-570
767932748,-2696,144,15572,-124,331,-63
767934457,-2900,-472,15972,-42,186,10
767936170,-1804,416,15548,-52,125,-499
767937883,-2188,612,14864,-211,383,330
767939589,-2040,-1844,15008,-48,675,11
767941296,-2056,-1112,15828,29,822,-409
767943065,-3648,332,16688,-21,510,212
767944768,-3444,-200,16252,-115,683,-10
767946514,-3872,768,17116,-214,552,248
767948299,-4052,-160,16532,-239,302,609
767950022,-3704,-1524,16744,-61,374,-69
767951732,-3604,-212,16724,-12,203,143
767953517,-3408,-988,16316,-67,102,500
767955211,-4360,-1896,15540,52,34,-153
767956895,-2128,384,15588,60,279,-135
767958583,-2964,-904,17188,-154,288,653
767960317,-3564,-1956,16292,-166,189,426
767962006,-3016,-1852,14092,-56,537,-118
767963753,-3484,-1372,14568,72,789,-73
767965451,-3484,-856,16544,15,765,-257
767967145,-3900,-208,16332,-170,576,140
767968846,-4404,-956,16176,-196,696,-99
767970550,-4488,-756,15752,-67,584,42
767972294,-4832,-1856,16452,-9,481,319
767974042,-6012,-3376,17096,272,253,-377
767975745,-4884,320,17624,337,32,-570
767977411,-4828,904,17580,162,-79,139
767979062,-4156,-664,17400,63,-253,315
767980715,-3316,-472,17368,94,-33,62
767982369,-3520,-688,16524,57,-62,214
767984167,-3920,-1356,15580,161,50,152
767985905,-4768,-1380,15892,351,-130,7
767987633,-3804,264,15568,160,-66,-119
767989349,-3680,488,15520,57,-157,217
767991066,-2216,-1508,15252,75,5,421
767992779,-3684,-872,15296,193,133,-326
767994491,-3564,332,15460,109,81,-280
767996202,-5504,-136,15352,-89,102,510
767997915,-4496,-2708,16576,47,74,29
767999625,-3704,156,17148,182,-10,-616
768001334,-3264,1320,16912,89,12,-145
768003044,-3956,-1308,16748,-127,381,661
768004783,-5664,-2068,16480,116,-135,-417
768006491,-3604,1800,16968,51,-119,-565
768008209,-4308,1832,17312,-99,-133,391
768011110,-4344,-3092,15532,49,-510,-266
768012969,-3420,-52,15392,241,-600,-636
768014769,-1164,820,15312,45,-142,68
768016505,-3188,-380,16072,-222,-7,359
768018207,-3316,-1488,15460,-189,-215,261
768019890,-3528,-1172,15892,-1,33,-550
768021571,-2052,636,15856,43,53,-96
768023248,-2140,496,16480,-136,168,70
768024935,-3304,-1652,15216,-201,-125,355
768026684,-2324,-1192,15068,76,358,-633
768028389,-3008,100,16080,136,377,-471
768030099,-2948,-264,16336,-93,29,325
768031807,-4084,-1332,16792,-114,234,-96
768033516,-3912,-652,17208,52,-57,-177
768035224,-3948,-244,16852,23,-180,-25
768036957,-3040,-764,16520,-21,-181,65
768038667,-2800,-764,17088,-4,-26,-18
768040375,-2976,-1120,16716,27,-183,111
768042083,-3140,-1488,15072,166,-229,-266
768043794,-2840,1024,14976,10,85,-245
768045507,-2904,-272,15360,-178,-14,550
768047280,-2932,-1492,15912,-118,-15,290
768049015,-2344,208,15984,-37,200,-513
768050746,-2596,488,15244,-120,323,629
768052453,-3276,-1296,15556,-109,333,107
768054280,-3524,-796,15856,-110,490,-89
768056158,-5420,-764,16688,12,87,481
768058011,-3532,-1216,16048,46,42,79
768059693,-5000,-816,17196,-22,-57,299
768061381,-4452,-1548,16504,22,-203,397
768063065,-4480,-800,16580,97,29,-166
768064723,-5280,-708,17404,-51,-304,388
768066377,-5496,-1632,16596,-92,-423,365
768068112,-4288,-1128,15908,6,-259,-486
768069798,-3624,-320,16924,-53,-226,15
768071475,-4336,-2028,15948,-54,-366,43
768073147,-4464,-2280,15184,68,-398,-167
768074845,-4052,-1260,14448,150,-326,-426
768076556,-4476,256,16072,85,-388,-341
768078349,-3868,596,16292,67,-507,-194
768080060,-2924,464,15736,-140,-391,33
768081721,-3268,-1060,15232,-122,-225,42
768083373,-3156,-1228,15448,-26,-2,-198
768085023,-5376,-268,16324,195,-59,-162
768086674,-3992,-760,16300,31,-346,225
768088366,-4072,-868,16232,-54,-209,24
768090056,-3940,272,16736,12,-252,-114
768091766,-3524,184,16560,-7,-144,130
768093474,-4856,-76,17344,-234,-367,135
768095182,-5192,-888,16296,-257,-501,428
768096891,-4692,-2740,15416,-32,-305,-109
768098623,-4328,-420,17408,-10,-398,-462
768100331,-4144,-100,16752,-114,-758,-54
768102041,-1784,-2232,15668,-172,-307,77
768103752,-3400,-1072,15172,-9,-289,-714
768105462,-2288,752,15388,-184,-104,-315
768107174,-3812,88,15608,-304,-110,202
768108909,-2604,-2400,15480,-203,-270,-342
768110623,-2680,-1012,15812,-111,-7,-583
768112337,-2176,-1704,15968,-149,107,-362
768114099,-2620,-1508,15704,-146,262,-584
768115853,-2948,-1724,16532,-71,74,-530
768117568,-2516,-1368,16392,-8,153,-826
768119364,-4404,-76,17500,16,96,-727
768121050,-4216,228,17308,73,-260,-588
768122724,-2780,1152,17372,-25,-344,-603
768124398,-2356,920,17120,-103,-481,-82
768126069,-1640,340,16680,-60,-451,-99
768127737,-1392,276,15572,22,-351,-253
768129455,-1380,1136,15280,-22,-304,48
768131151,-900,576,15536,-104,-156,342
768132889,-768,-540,14648,-91,94,190
768134624,-1724,492,15812,-62,304,-90
768136342,-2156,1324,15708,-303,287,336
768138132,-2012,460,15316,-384,350,610
768140169,-3128,-1984,15764,-297,454,281
768141919,-3320,-1764,16316,-155,396,-138
768143617,-3956,-1340,16100,-76,346,1
768145319,-2912,-616,17376,-182,358,-94
768147090,-3688,-580,17756,-311,345,157
768148908,-4360,-2144,16956,-224,180,164
768150694,-5348,-1772,16912,146,-11,-254
768152404,-3580,544,17168,-105,-296,-126
768154093,-3236,380,16524,-272,-192,475
768155789,-3580,-3192,15500,73,-285,417
768157473,-2104,100,15244,305,-172,-792
768159147,-2084,2064,14796,157,-74,-51
768160850,-2940,76,15120,-163,34,897
768162607,-3128,-524,15424,-94,285,-99
768164351,-2624,-412,15844,-39,214,530
768166062,-3204,-1140,15232,-44,418,529
768167771,-3752,-1352,16240,74,375,290
768169473,-4544,-2260,17232,12,510,479
768171181,-6028,-2020,17628,31,307,123
768172857,-5812,444,17228,17,-37,-202
768174597,-5544,204,16124,-241,-494,621
768176405,-4348,-2164,16980,-319,-277,97
768178213,-3736,-1576,17244,-54,-428,-386
768179977,-4088,-520,16580,-61,-509,-390
768181758,-4192,-508,13376,-273,-716,557
768183916,-2544,-4544,15528,-222,357,342
768185662,-3652,-1912,15780,375,-37,-1117
768187382,-1840,1988,14212,158,369,-362
768189108,-2732,1484,15356,-112,762,175
768190812,-4960,-68,16592,-203,567,-119
768192518,-5676,-1308,17000,-61,-81,93
768194238,-4300,-1932,16720,121,-197,-328
768195932,-3916,-212,16456,75,29,-750
768197629,-4704,616,17048,-76,-462,448
768199337,-3464,-1552,15384,-57,-287,-334
768201040,-2660,-4,17124,-39,156,-878
768202732,-4932,908,17968,-263,-435,497
768204445,-3576,-3652,15172,-220,-405,-153
768206144,-3724,-2636,15780,-35,-93,-1080
768207827,-2636,1588,16100,-86,-338,-552
768209529,-1536,-808,15140,-295,-218,249
768211234,-2540,-2544,15388,-206,-176,-371
768212960,-2016,-2256,15348,-101,-205,-679
768214666,-996,168,14776,10,361,-641
768216414,-3872,-264,16616,-180,-26,145
768218154,-3352,-1436,16732,-193,-204,14
768219870,-2512,-240,16284,-156,284,-584
768221577,-2592,388,15976,-240,-46,-185
768223289,-1708,-488,16516,-192,472,-66
768225000,-2704,-784,16792,-166,549,-135
768226701,-3424,-1492,16664,21,92,-79
768228383,-3672,-64,15332,57,-179,-337
768230083,-2520,904,15632,35,65,-237
768231774,-4140,-120,17020,22,-198,684
768233492,-1944,-876,16460,-85,-437,-373
768235185,-1244,1928,15396,-131,66,-14
768236889,-816,1376,15412,-223,311,525
768238579,-3188,-2020,15516,-240,464,629
768240276,-3172,-2836,15208,1,124,-350
768241982,-2776,-964,15572,2,417,-724
768243688,-3648,404,15492,-64,346,549
768245391,-2632,-764,16716,-173,335,-154
768247100,-2804,532,17264,-239,288,-399
768248780,-2544,-756,16864,-352,416,826
768250485,-4128,-2836,16100,-18,416,-282
768252191,-4848,348,16140,30,-62,-158
768253908,-4124,88,16516,-50,-60,395
768255628,-2868,-1032,16740,-66,117,289
768257353,-3684,-1244,16296,42,-191,234
768259055,-2380,-1448,16360,89,-134,71
768260752,-2640,580,15608,-1,487,172
768262453,-4236,-1668,15812,-95,28,843
768264183,-3804,-1160,15868,-54,199,-392
768265906,-3640,600,16016,-87,246,-363
768267622,-2456,-468,16012,-199,272,772
768269330,-3648,-3668,16264,-200,390,1
768271026,-4060,-3668,15420,-67,316,-362
768272737,-4728,-1724,14900,151,533,-519
768274468,-4584,268,16728,14,397,-245
768276203,-5716,-660,17940,-232,25,114
768277926,-5136,-948,16788,-238,-169,-237
768279631,-2080,328,15632,-55,317,-363
768281372,-4180,-1108,16968,-33,346,363
768283161,-5512,-3052,16252,158,146,-188
768284997,-6708,-2300,15352,263,-54,-596
768286728,-3512,1092,15660,294,-34,-645
768288424,-3556,848,16848,67,-125,401
768290084,-2764,-1508,16280,15,95,-441
768291719,-2964,-564,16876,15,101,-939
768293356,-4212,600,16080,-137,43,-12
768295051,-5740,-1176,15020,-126,-72,387
768296745,-3260,-1864,16056,-6,5,-1076
768298460,-2856,1740,17916,-241,-168,-624
768300177,-1976,-896,14356,-387,-91,134
768301917,-1644,-2052,14940,-295,486,-215
768303668,-4316,-1136,16772,-120,101,-975
768305529,-2476,940,16644,-303,4,-512
768307266,-4772,-1116,15824,-243,-49,301
768308996,-3492,-2112,15728,-128,-150,-196
768310750,-3412,-388,15964,-68,-178,-436
768312494,-832,-1192,14752,-79,-123,108
768314236,-2072,-1624,15596,64,679,-152
768316056,-3304,-1228,15676,76,336,-281
768317872,-3400,-804,15652,15,560,-342
768319647,-4024,232,17100,-57,562,-289
768321404,-3276,-408,17968,-161,463,-59
768323155,-3796,-1028,16868,-313,153,-314
768324882,-3380,-1268,15684,-301,183,-250
768326632,-2712,-1704,15820,-58,333,-375
768328365,-3912,-824,17544,-126,103,-383
768330125,-2708,-528,16340,-158,-88,-427
768331903,-3292,536,15776,-178,-9,-621
768333640,-2200,1620,16880,-218,-148,-100
768335326,-1344,-1016,16208,-254,303,529
768336988,-2948,-2488,16352,-120,376,237
768338663,-3164,-1836,15508,308,-346,-674
768340338,-1520,2444,15152,68,317,-175
768342013,-2152,-124,16164,-214,219,1025
768343685,-1644,-1376,15784,-129,114,349
768345377,-240,1312,14892,-202,524,-159
768347065,-928,-732,16228,-360,1236,1085
768348756,-3344,-1896,16796,-380,1339,638
768350492,-5788,-1972,16260,-197,325,215
768352231,-2768,-308,17184,-362,1034,86
768353939,-4132,-32,18216,-357,978,560
768356735,-2308,-3352,15228,-136,329,70
768358481,-4212,-932,16700,-98,690,-242
768360164,-4772,-1540,16436,-8,38,499
768361825,-5708,-2304,15928,83,-202,280
768363538,-2304,-860,15104,126,39,-560
768365272,-2956,276,17116,25,215,355
768367034,-508,-2340,15372,149,177,-116
768368715,-632,-1524,15728,219,643,-610
768370397,-4416,900,15064,43,704,27
768372071,-4784,-1164,15052,-17,577,369
768373741,-5292,-1604,16780,-23,518,-92
768375419,-4612,-132,16828,162,-151,-520
768377148,-2656,1748,16924,-57,183,-39
768378855,-3248,708,16420,-202,300,512
768380571,-4328,-2404,16688,-260,157,-111
768382281,-5420,-680,16652,-134,208,-501
768384069,-6288,-2448,14668,-155,-459,193
768385844,-3544,-4708,15160,-59,-42,-108
768387654,-5580,-2260,16464,271,90,-1725
768389366,-1188,1640,14820,211,332,-1048
768391066,-3840,-516,17216,-263,958,-203
768392758,-6496,-1260,16580,-307,476,-712
768394453,-5080,-168,14664,-72,301,-1046
768396145,-5464,16,16728,25,321,-336
768397860,-4516,96,17592,6,-14,-631
768399655,-3940,2436,16636,-194,-109,-519
768401483,-3304,-68,15968,-338,-115,653
768403238,-4660,-1524,14740,83,-20,-388
768404948,-3372,1052,16668,40,-220,109
768406666,-3080,188,16296,-171,-50,789
768408404,-3828,-1124,15392,-113,256,273
768410103,-3880,-124,15176,-39,21,487
768411786,-2692,-1000,15252,-90,149,816
768413467,-3036,-1684,16360,-102,866,340
768415141,-4420,-548,15992,-135,-66,653
768416903,-4440,-1740,16256,-231,623,598
768418712,-6500,-2360,17036,-122,230,629
768420491,-4484,-3412,16688,-2,-276,42
768422199,-5224,-2028,17476,62,-451,-125
768423879,-2140,-1992,17000,146,-415,-197
768425552,-1708,-1060,16736,147,-241,-344
768427229,-972,-1096,16328,-103,-65,250
768428979,-3188,-3280,14964,49,232,-107
768430681,-3068,-2300,14700,257,181,-783
768432392,-2056,1720,15728,176,488,-645
768434103,-3392,-188,15980,-207,-78,560
768435811,-2108,-1576,14920,-121,146,21
768437524,-3108,96,15528,160,222,-574
768439260,-1312,-1300,14708,134,119,111
768440971,-2852,-128,17048,190,686,-628
768442684,-2988,828,17396,197,418,-348
768444398,-2904,-16,17400,45,368,152
768446104,-4688,-64,17184,155,47,-89
768447814,-3236,400,16652,149,47,-67
768449594,-3196,-632,18076,79,64,353
768451432,-2356,-1388,17256,194,-176,-156
768453182,-2064,1828,16296,90,195,-283
768454900,-2260,-88,15500,-301,80,1033
768456610,-3140,-2416,14988,-282,145,844
768458331,-2524,-2460,14712,32,70,-369
768460169,-2032,-300,15604,214,364,-91
768461865,-1340,-612,15644,-6,257,301
768463622,-2324,-864,14904,-139,495,294
768465338,-3812,-1924,15896,71,416,38
768467044,-3148,-836,15840,227,396,-39
768468749,-3932,-864,15908,189,365,280
768470493,-3112,-1440,16416,86,482,-42
768472181,-4132,-1212,17120,40,755,305
768473868,-5340,-2756,15988,246,404,69
768475559,-4692,-1784,16520,290,639,-445
768477248,-6124,276,17908,69,523,181
768478930,-5764,-2636,16336,153,20,262
768480690,-6148,-2348,16356,274,110,-543
768482418,-5984,972,17428,271,-33,-385
768484244,-6548,-1048,17192,7,-539,555
768486064,-5396,-1968,15744,196,-753,-534
768487832,-4420,1064,16092,362,-447,-629
768489568,-3596,2120,16524,274,-512,-233
768491378,-3156,1224,15924,-213,-276,395
768493078,-4660,-1308,15076,-140,-169,196
768494825,-4144,-932,14848,273,-54,-402
768496585,-3764,596,15132,245,-12,-484
768498330,-3344,1940,16740,-189,46,351
768500082,-5072,-1308,16224,-301,-188,580
768501770,-4436,-896,15960,-19,-169,-624
768503531,-4800,1028,16460,-30,-289,-516
768505230,-4016,392,17440,-385,-394,581
768506932,-5076,-2836,17032,-223,-618,226
768508627,-4252,-2820,16688,-72,-753,-396
768510330,-3224,460,16500,25,-515,-551
768512078,-2740,-136,16340,-288,-285,693
768513802,-4504,-3732,16036,-153,-743,15
768515508,-2656,-3440,15996,149,-882,-709
768517215,-1432,2380,15480,73,-14,-805
768518926,-1952,264,15012,-451,-597,989
768520705,-1448,-2704,14672,-302,52,-322
768522453,-2280,-1832,15164,-126,170,-609
768524250,-2068,-1164,14948,128,-140,-318
768525921,-1800,648,15440,-132,147,-277
768527577,-2200,212,15880,-286,181,234
768529752,-2788,-2952,16436,189,131,-561
768531417,-2668,-1200,16664,290,96,-870
768533075,-2132,1408,16664,-18,77,46
768534728,-2064,348,17132,-171,194,455
768536420,-3320,-2028,17552,14,186,-20
768538133,-3456,-20,16704,176,-193,-522
768539842,-3724,100,16120,-38,-228,299
768541562,-3372,-660,16536,-92,-219,200
768543287,-2732,-548,16196,-14,-356,-218
768545076,-1784,-384,15924,74,-417,-100
768546783,-1076,1056,15580,-92,150,-109
768548481,-1804,836,15740,-222,134,377
768550176,-2292,-2124,14316,-151,-60,446
768551924,-2604,-696,15572,14,556,-632
768553715,-2824,1388,15300,-180,502,432
768555451,-2840,-504,15820,-280,490,945
768557145,-3880,-2864,17140,-99,663,-215
768558817,-4240,132,17380,128,556,-356
768560524,-5048,628,17668,18,293,111
768562224,-5268,-260,16872,-294,-59,174
768563930,-5928,-1892,17560,-224,25,356
768565631,-6516,-3220,17232,-4,-423,172
768567326,-3780,-1968,15980,233,-592,-764
768569004,-3760,-1168,16156,50,-190,123
768570660,-3820,-2272,16096,80,-162,168
768572322,-4108,-2448,15188,236,-238,-586
768573980,-3408,-248,15028,234,-72,-877
768575697,-2888,2280,15232,-77,256,-447
768577401,-2784,1328,15504,-316,352,162
768579117,-4504,-3096,15916,-179,270,-70
768580828,-4768,-672,16304,232,175,-1269
768582536,-4716,1604,16328,156,162,-785
768584289,-4724,436,16776,-171,-5,498
768586122,-5688,-1448,17956,-40,-310,-278
768587853,-4432,1132,17012,110,-399,-603
768589572,-4284,2056,16960,5,-456,-102
768591330,-4188,-360,16936,-294,-535,806
768593047,-4660,-3936,16408,-12,-611,112
768594761,-2836,-824,15296,328,-605,-900
768596498,-2052,1712,15872,153,-511,-557
768598216,-1508,504,15296,-298,-392,878
768599933,-2760,-2300,14224,-247,-33,-54
768601646,-2824,84,14120,-71,-22,-590
768603361,-2108,1644,15620,-178,100,-366
768605076,-2668,-112,16072,-477,149,850
768606813,-4084,-3980,16348,-212,107,55
768608529,-3748,-2796,16968,39,-10,-866
768610250,-2672,1720,16840,-85,35,-214
768611970,-3372,-2508,16872,-274,1,977
768613730,-3820,-3468,16664,108,-230,-1030
768615448,-3292,-472,16692,177,-283,-1268
768617165,-3036,1392,16108,-92,-349,487
768618864,-2912,-2060,16164,-200,-481,26
768620551,-2280,-1868,16128,-96,-404,-597
768622322,-1720,296,16936,-127,-193,-450
768624096,-980,-92,15332,-140,-54,-91
768625793,-1824,-684,15452,-245,118,-58
768627558,-1920,-1288,15144,-236,165,-18
768629241,-2052,-1540,15732,20,453,-397
768630917,-2780,956,16196,34,202,-324
768632592,-2132,568,16248,-251,241,357
768634265,-2844,-564,16208,-293,433,370
768635941,-3360,-776,17064,-58,235,-345
768637661,-2336,380,16320,-100,58,172
768639362,-2516,-696,16384,-194,268,578
768641082,-4320,-2432,16752,7,261,24
768642794,-3536,32,16448,81,-78,-365
768644505,-3176,280,16932,-159,74,534
768646276,-3616,-952,16528,-193,65,599
768648088,-3096,-2216,15732,-12,64,-67
768649789,-3528,-1084,15808,-15,270,-273
768651483,-3988,-116,16040,-109,260,-296
768653297,-3940,-616,15796,-197,-4,352
768655016,-3356,-2672,16044,-216,225,-111
768656724,-4092,-2120,15976,-64,177,-393
768658492,-4220,-2036,15164,31,149,-275
768660175,-3324,-1736,15692,105,277,-615
768661869,-4624,-68,16816,-115,237,-511
768663552,-4888,-1636,15900,-72,175,-41
768665275,-5056,-1760,15600,65,164,-481
768667022,-4060,-136,16420,126,144,-776
768668799,-4292,-716,16592,84,186,-31
768670465,-4976,-1332,16024,126,165,-208
768672130,-4880,80,15868,183,-117,-709
768673791,-3804,1304,16380,46,-128,-180
768675446,-3832,1116,16592,-72,84,5
768677108,-5020,-508,15752,-85,-16,166
768678817,-4344,-700,16516,61,-268,-556
768680513,-3212,1560,17044,-42,-62,-158
768682233,-3396,932,16636,-162,-46,530
768683949,-4112,-2208,15316,-166,-308,241
768685664,-3068,16,16720,-118,-205,-630
768687397,-3252,1408,16360,-202,-268,-121
768689195,-2388,-1060,15560,-256,-204,755
768690899,-3648,-2628,15740,-125,-163,-225
768692636,-2476,-528,15728,-70,-106,-330
768694369,-2432,-4,15828,-57,3,84
768696081,-1920,-1164,16244,-113,-51,210
768697803,-2772,-1376,15620,-151,143,-64
768699582,-2828,-740,14528,-39,193,-120
768701860,-2332,-16,16240,-93,352,82
768703581,-3452,-764,17356,-241,384,138
768705308,-4172,-420,16420,-167,206,-52
768707023,-2928,1540,16940,-289,69,26
768708736,-3252,-600,17632,-579,-71,1013
768710472,-3568,-3648,16016,-200,-114,68
768712156,-3072,-2120,15700,14,-87,-598
768713797,-2444,1128,15796,-132,-108,337
768715437,-2684,-256,16680,-280,-110,992
768717077,-2812,-2740,15512,-106,-126,210
768718711,-2328,-76,15440,100,82,-378
768720386,-2064,840,16316,42,58,-60
768722045,-1948,-272,15980,-182,266,458
768723780,-2704,-2036,14908,-61,264,-59
768725508,-2592,-552,15088,15,506,-427
768727193,-2928,308,15412,-60,632,-264
768728867,-3976,-888,16588,-160,715,261
768730630,-4488,-1448,18112,-179,498,-573
768732333,-4876,544,17004,-132,334,-848
768734037,-3916,2964,15272,-328,-23,36
768735741,-2672,-936,18220,-618,552,678
768737444,-4440,-2976,16816,-336,-171,-281
768739138,-3608,-2480,15152,-91,-215,-467
768740839,-4836,-888,14956,116,40,-277
768742540,-2048,160,16596,-129,105,34
768744278,-2956,-504,16776,-253,-5,331
768746069,-1544,-1904,15356,-98,43,-137
768747922,-2192,-40,15412,-96,572,-318
768749804,-3680,-2512,14376,-196,361,587
768751657,-4624,-3012,15208,82,558,-808
768753435,-4172,264,15924,35,265,-376
768755178,-3832,-408,16388,-41,122,140
768756889,-3520,-1716,16940,-21,448,-227
768758585,-3700,-1092,16804,55,291,-351
768760263,-3840,-484,17360,32,194,-402
768761942,-4708,592,16976,9,-126,-24
768763627,-4596,-1628,16260,-74,-8,412
768765313,-4316,-2552,16496,65,-64,24
768767058,-2704,-420,16220,268,-131,-800
768768779,-1704,992,16392,48,317,-109
768770466,-3556,-508,16616,-46,362,86
768772208,-4536,-580,15468,-119,76,-151
768773886,-2904,196,13880,-187,340,-83
768775562,-4604,-1016,17336,-88,393,136
768777232,-4500,-1208,16876,-53,-44,-208
768778904,-2444,988,15432,-66,307,-464
768780575,-2672,548,16028,-231,362,402
768782294,-3028,-552,16204,-251,434,367
768784039,-5904,-808,16696,-216,408,73
768785775,-4360,-632,16008,-117,24,179
768787496,-3352,324,17292,-170,202,39
768789212,-2840,464,18248,-223,176,331
768790928,-2952,-1332,16676,-266,84,635
768792671,-4256,-2208,15980,-252,74,272
768794382,-4836,-3524,14492,42,-203,107
768796093,-3456,-2300,15228,186,-23,-582
768797800,-2536,972,16952,-75,-15,86
768799508,-2936,-2636,15380,-297,-224,648
768801217,-2212,-3592,15060,-102,-64,-183
768802949,-1680,-160,15124,157,440,-815
768804659,-3432,-580,16552,-86,432,159
768806367,-4324,-172,16176,-84,79,-651
768808076,-3288,1320,15908,-150,67,-677
768809784,-3024,968,16108,-278,52,551
768811495,-2376,-2444,16416,-141,211,-5
768813212,-2256,-1488,16008,-39,380,-648
768814954,-2464,1732,15264,-125,406,-81
768816650,-3008,-696,16872,-313,662,618
768818341,-4904,-1276,16804,-217,410,-124
768820062,-4500,-1064,16260,-145,100,-111
768821757,-2776,544,15968,-202,190,-343
768823510,-2624,400,17620,-332,398,302
768825228,-3000,-1276,16816,-330,171,480
768826925,-2744,-2052,14680,-241,113,-369
768828674,-3132,-1032,15008,-189,218,-97
768830453,-3072,-2188,15852,-74,512,22
768832452,-3124,-1016,16436,-33,278,-497
768834315,-2596,1208,16600,-387,655,-194
768836090,-3216,316,16188,-378,587,514
768837755,-3260,-3288,15472,-124,615,39
768839475,-4860,-1916,15864,69,428,-613
768841200,-4004,-1408,15636,74,322,-329
768842926,-2824,-420,15336,30,560,-225
768844619,-3764,-392,16848,-87,442,87
768846299,-3580,-2244,16108,3,463,-43
768848056,-3876,-2228,15532,99,561,-376
768849770,-4896,-264,16288,211,434,-566
768851457,-4144,368,16852,74,219,-14
768853143,-3856,16,16728,-54,331,58
768854856,-3864,-660,16876,-86,246,-107
768856574,-3220,-668,16124,-12,46,-163
768858290,-3256,132,15792,-20,644,-209
768860047,-4628,-40,16576,-72,436,33
768861767,-4160,-840,15188,-116,84,-74
768863483,-3468,-84,15580,-44,344,-7
768865207,-2984,-688,16516,31,349,271
768866886,-3416,-1576,17484,127,178,58
768868584,-3272,-264,16056,21,141,34
768870299,-3652,-484,16508,16,304,500
768871973,-4444,-1116,17264,45,63,480
768874068,-3244,-1956,16608,38,-81,164
768875787,-3716,-2152,16084,151,108,56
768877458,-3268,-1064,15860,275,-74,-247
768879138,-2736,-744,16056,206,-2,22
768880825,-3704,-1592,15716,-18,132,284
768882512,-3244,-1508,15184,107,66,-242
768884234,-2736,-732,15344,172,308,30
768885933,-3624,-588,15580,133,334,-40
768887681,-3924,296,16108,92,519,-269
768889432,-4740,-232,16148,22,297,336
768891146,-5184,-624,15708,76,112,182
768892841,-4152,224,17016,179,169,-160
768894535,-3692,60,17348,51,88,534
768896231,-4712,-808,16956,-4,-56,169
768897999,-4912,-156,16940,34,-123,2
768899707,-3836,-308,17004,-26,-102,592
768901416,-4856,-2664,16416,-40,-151,315
768903128,-4724,-2624,16660,51,-292,-128
768904838,-3180,-840,15804,123,-194,-246
768906546,-2796,-608,16160,14,88,32
768908281,-4096,-1248,15416,-88,-75,-19
768909994,-3524,-1680,15552,-52,-86,-188
768911739,-3424,-520,15952,159,39,-506
768913545,-3412,-92,16064,98,-93,-37
768915309,-3596,-212,16116,11,-61,-154
768917035,-3308,228,16180,28,-34,-176
768918837,-2992,656,17064,25,-166,14
768920544,-1776,768,16504,-203,-96,113
768922236,-2784,-200,16520,-183,218,325
768923919,-3112,-1080,16840,-104,169,273
768925601,-4064,-2340,16476,-97,-221,217
768927284,-3264,-2704,14836,85,-86,-394
768929027,-2828,-1604,15652,209,101,-511
768930716,-3044,-808,16344,9,-73,85
768932410,-2664,-2224,15680,31,-116,-227
768934103,-2596,-1664,15368,72,76,-581
768935793,-2260,-196,15488,108,339,-314
768937485,-3444,-988,16780,43,314,-96
768939196,-3768,-748,17132,147,58,-516
768940887,-3636,-144,16644,191,9,-414
768942574,-3464,392,16220,30,133,-114
768944277,-3544,0,16876,-63,130,88
768945974,-3648,-672,16948,33,93,162
768947665,-3048,-124,17348,157,-75,-395
768949422,-3204,1008,16636,-113,69,314
768951129,-4276,-1876,16328,26,-32,418
768952838,-4612,-1276,16128,96,-109,-289
768954548,-3476,-340,16548,-41,-317,338
768956298,-3448,-3044,15620,40,-255,239
768958035,-3704,-2336,15356,177,-148,-465
768959826,-2448,244,16188,90,-116,-200
768961525,-3804,-1056,15908,-189,94,183
768963210,-4028,-828,15740,-88,78,-481
768964895,-3248,-360,16008,-62,139,-382
768966589,-3664,-52,17016,-87,318,-226
768968287,-3820,-236,16828,-75,-66,51
768970011,-3720,-956,16276,-83,-7,153
768971768,-5280,-1240,16104,69,-88,-136
768973471,-4508,836,17128,141,-320,-109
768975151,-3744,1184,16964,-105,-688,474
768976825,-2728,144,16236,-177,-622,645
768978490,-3200,-1392,15828,-117,-242,268
768980162,-3404,-436,15624,-96,-76,105
768981894,-4540,-916,15508,-68,-168,576
768983601,-3728,-2820,15740,-223,-242,258
768985339,-4344,-1624,15296,-90,30,-267
768987074,-2532,-1700,15640,79,-117,55
768988795,-2016,-1660,15908,51,204,-184
768990506,-4932,-1000,16668,-112,-104,-120
768992218,-4000,-2276,15436,51,-86,-125
768993927,-5380,-1716,15840,215,-32,-555
768995645,-4044,1188,16640,147,-621,-717
768997366,-2692,-80,16956,-193,-548,483
768999081,-2204,-2076,15352,94,-360,-663
769000790,-1112,244,15456,239,-76,-1207
769002524,-2644,3804,16328,-338,59,99
769004244,-4520,-1340,16300,-648,5,951
769005964,-4796,-3760,16264,-330,-230,179
769007677,-2720,-60,15788,70,110,-1389
769009386,-3704,1848,17064,-330,-311,628
769011119,-2028,-3432,15808,-321,-139,328
769013010,-3532,-2444,16684,97,-182,-888
769014756,-2272,-764,15924,198,-287,-859
769016451,-3104,1500,16960,-82,33,-159
769018151,-3648,-232,15788,-379,-621,339
769019843,-1940,-1724,15500,-314,-449,123
769021526,-2216,-1652,15576,-23,0,-589
769023274,-1516,-176,15936,-11,33,-381
769024976,-1404,-368,15704,-117,123,-92
769026676,-2556,-1548,15240,-126,176,-7
769028382,-2876,-1156,16320,70,582,-382
769030080,-4256,840,16496,72,-141,-129
769031774,-2452,1224,15824,-79,-223,35
769033485,-2476,-528,16696,-330,479,554
769035194,-3952,-2564,15860,-24,157,-117
769036905,-3024,-1672,16484,127,167,-611
769038618,-4724,-324,17580,-79,3,277
769040334,-4208,-3384,16112,-12,-252,45
769042042,-3296,-716,15732,193,-240,-847
769043807,-1984,256,16528,146,-214,-379
769046602,-2308,76,16240,9,103,-375
769048348,-2804,-296,15616,-110,-22,64
769050049,-3768,-760,15024,21,18,-203
769051744,-3312,444,15428,39,112,-468
769053437,-2160,1412,16564,-129,41,356
769055132,-2468,-1996,16924,-152,156,510
769056861,-3032,-1716,16324,-12,320,-277
769058576,-2944,2616,16644,-71,534,-130
769060281,-5400,-256,17032,-466,-42,1344
769061988,-3976,-3244,15940,-248,70,-52
769063685,-4064,-2152,15928,-30,184,-343
769065386,-3480,-1132,15972,66,-213,292
769067081,-3488,-1872,16004,-60,142,311
769068761,-4448,-2432,16388,-100,36,349
769070487,-3972,-2508,14744,124,-239,-304
769072274,-4036,912,15912,64,71,-486
769073992,-3156,16,16336,-239,59,583
769075700,-3452,-1908,16136,-242,127,553
769077423,-3972,-2952,16148,-23,47,-475
769079096,-4328,-600,15536,194,88,-449
769080766,-4600,512,15936,132,76,-246
769082437,-2792,188,16272,-110,42,249
769084126,-4844,-588,16200,-75,-256,-22
769085864,-3564,-72,15808,-24,-278,-403
769087562,-3320,1484,16828,-69,246,149
769089271,-3896,-1332,17032,-306,-190,671
769091036,-4268,-2980,15612,-68,-137,-232
769092893,-4020,-168,16068,211,39,-532
769094758,-3796,812,16580,27,-162,-161
769096530,-2528,-1604,16164,-204,-141,330
769098251,-4240,-1240,15556,37,-197,-582
769099948,-2328,1380,15464,-7,-76,-506
769101620,-3012,1552,16352,-197,-7,122
769103300,-3540,-2024,16352,-445,-132,402
769104982,-3192,-1724,15532,-102,38,-910
769106723,-3128,-56,16652,-1,40,-845
769108422,-2832,488,16908,-262,2,238
769110126,-2952,-2588,16528,-172,110,-3
769111826,-3328,-1908,16520,-77,-11,-641
769113523,-1836,852,15992,-148,109,-276
769115297,-4256,-1364,16288,-146,18,570
769117139,-2652,-1872,15940,-60,-154,-553
769118825,-2820,-344,15896,-110,-43,-619
769120495,-2368,-208,16448,-170,-66,-16
769122159,-2016,-888,16188,-85,115,-149
769123822,-2548,-1576,16108,-148,141,-57
769125491,-3536,-2716,15292,-61,52,-348
769127204,-1888,-344,15648,227,378,-848
769128903,-3056,860,17556,-37,405,178
769130619,-3896,-324,17548,-122,44,322
769132329,-2676,-264,15956,-243,137,-502
769134035,-2428,-172,15688,-105,401,206
769135752,-3560,-1084,15648,-57,335,156
769137497,-2760,-1328,17232,-44,200,-447
769139216,-4684,-944,17256,-53,-64,-197
769140928,-2172,-188,15388,29,-166,-374
769142638,-2468,332,15552,-24,154,-207
769144375,-2496,-1224,16936,-81,-93,240
769146106,-1632,-1144,16324,-49,215,-545
769147891,-2076,-300,15892,9,274,-100
769149598,-3120,8,15144,1,317,-158
769151295,-3020,140,15536,-88,161,179
769152993,-2384,-1184,16156,-172,331,21
769154689,-2952,-548,15884,-74,349,-286
769156385,-2928,608,15480,36,340,76
769158117,-2300,236,15676,-219,643,288
769159839,-5080,-948,16924,-341,498,246
769161536,-4976,-1520,16216,-240,242,228
769163232,-4124,-1704,15220,14,467,51
769164925,-4264,-1160,16820,68,288,5
769166618,-3584,-916,17912,-104,332,23
769168382,-4908,-1656,16192,-231,152,527
769170063,-4852,-1608,16000,-53,124,-350
769171767,-4528,-144,16572,-24,51,-392
769173517,-4044,-1404,16292,-298,202,647
769175306,-4940,-3624,14752,-44,-139,-358
769177008,-3428,-1112,15592,160,100,-611
769178735,-4328,-832,15480,121,155,-100
769180400,-3752,-2004,15660,85,283,-170
769182062,-3300,-108,16928,125,238,-783
769183749,-3576,1316,16672,123,231,-633
769185514,-3928,1776,16028,-94,269,148
769187295,-5148,-712,16792,-187,280,244
769189088,-5292,-532,16784,-18,-396,-492
769190775,-2948,1704,16452,60,-189,-67
769192458,-2860,1636,16812,-45,-100,400
769194143,-4036,-160,16136,-311,-403,589
769195831,-3524,-800,14240,-208,-372,85
769197515,-2540,4,14604,-168,-41,-113
769199253,-2568,344,16140,-328,238,576
769200963,-4140,-2556,15804,-513,65,530
769202676,-3768,-2864,15072,-420,53,-18
769204390,-2628,-1144,15832,-191,516,-301
769206111,-3684,-2872,16180,-229,141,436
769207823,-2936,-3368,15956,-62,422,-917
769209559,-3672,-1100,17048,-5,392,-1158
769211282,-2636,152,16752,-119,-30,140
769213057,-4140,-2636,16492,-96,-78,-107
769214836,-3176,-1044,15888,20,-100,-865
769216573,-2428,88,16324,73,-54,-694
769219145,-1436,868,16420,-221,150,-31
769220871,-2336,-1228,15440,-183,463,-165
769222563,-2332,-864,15940,-59,441,-627
769224237,-2772,908,15204,-81,137,-66
769225908,-2392,-592,15652,-141,361,135
769227579,-2992,-488,16456,-83,476,-106
769229263,-2692,68,15992,-57,33,152
769231009,-2116,-636,16164,-160,156,9
769232758,-1212,12,16204,-185,468,-118
769234475,-1072,-108,16516,-247,742,113
769236191,-3004,-2136,16124,-199,634,312
769237908,-4352,-1308,17036,0,431,-608
769239620,-3836,220,16284,15,319,-440
769241331,-3380,220,15768,-243,425,368
769243036,-3364,-728,16868,-174,240,-95
769244736,-1720,644,17512,-179,253,214
769246435,-2288,-48,15728,-270,268,646
769248136,-3052,-1728,14812,-50,353,189
769249829,-4388,-380,16796,-24,406,310
769251555,-4640,-724,15564,-5,81,714
769253280,-2216,-1252,15656,-33,486,240
769255001,-2996,-1432,16708,-103,279,672
769256721,-2836,-3088,14948,81,714,183
769258471,-3804,-1828,15568,124,834,-309
769260217,-4040,-80,16560,-249,560,191
769261936,-5400,-2552,15796,-292,470,201
769263631,-4560,-2588,15888,-105,458,-453
769265322,-3604,-180,16860,-42,513,-359
769267011,-4608,-3044,16488,-181,260,354
769268697,-5096,-1980,15680,191,361,-966
769270385,-5100,448,16656,181,193,-934
769272155,-3876,1260,17052,-73,-13,311
769273868,-4324,-496,16492,-101,153,97
769275593,-3976,-380,15584,-31,21,-176
769277279,-2776,-96,15464,-23,290,11
769278935,-4648,-1468,15876,137,349,194
769280591,-4620,-1332,15668,197,211,-141
769282302,-4008,896,15016,29,192,-130
769284075,-3048,1272,16460,-194,231,386
769285814,-3476,-856,15700,-207,307,553
769287498,-3740,-1984,16004,-176,372,292
769289181,-5240,-1032,16060,-35,169,-259
769290861,-3896,312,16208,-144,314,153
769292620,-3984,-396,17032,-223,345,519
769294320,-4708,-2260,18008,-278,128,180
769296038,-3524,-720,16468,-131,-17,-347
769297735,-3748,-48,16616,-159,309,404
769299465,-4804,-1264,17336,-217,66,591
769301186,-4388,-2592,16400,-142,-327,-174
769302961,-3976,-448,15476,19,-200,-319
769304726,-3036,-648,16568,-15,-270,369
769306444,-3116,-1824,16240,-52,-312,402
769308156,-2828,-2064,15372,30,-171,-468
769309869,-1552,516,14956,137,-17,-283
769311589,-1968,-368,16404,-173,196,474
769313332,-2424,-2220,15752,-157,301,608
769315081,-3140,-2648,15420,131,322,-669
769316805,-1652,1504,15892,116,449,-611
769318499,-2320,1404,16824,-41,532,196
769320185,-3384,-1972,16256,-130,198,303
769321871,-2168,-860,15224,117,334,-799
769323623,-3360,588,16192,76,270,26
769325314,-3060,-448,16916,26,194,282
769327011,-2900,-840,16432,19,122,-242
769328705,-2444,44,16124,11,216,-75
769330399,-2516,132,16796,-2,344,-3
769332093,-2760,944,16436,-53,324,45
769333842,-2724,-1172,16732,-145,433,641
769335547,-4000,-2512,16448,-43,342,424
769337260,-4064,-912,15372,267,222,-572
769338970,-2876,1592,15712,63,211,369
769340678,-2356,-2016,16504,-198,211,823
769342388,-3152,-3136,15768,-93,317,309
769344164,-3164,-1544,14984,306,404,-459
769345870,-3872,256,16452,122,573,241
769347564,-5756,-1580,16504,-103,90,339
769349257,-4300,-1712,16004,-11,139,-74
769350956,-3684,-52,17136,48,377,88
769352664,-4168,-1396,17196,9,128,420
769354358,-4044,-1996,17304,-38,206,195
769356088,-4688,-1472,15540,104,361,-33
769357794,-6748,-72,16208,153,-298,-86
769359648,-4000,56,15196,-53,-247,298
769361390,-3520,-616,16208,-104,35,386
769363101,-3992,-2408,16608,110,-260,253
769364821,-3716,-2344,15288,399,-62,-310
769366514,-4432,-796,15360,395,104,-454
769368187,-4264,356,16528,98,54,309
769369858,-5572,-2096,16996,70,-230,528
769371529,-4716,-808,15744,395,-355,-872
769373209,-3104,1660,15912,395,-201,-790
769374934,-3168,2312,17500,-205,33,692
769376628,-3964,-1712,16976,-279,-178,479
769378312,-5212,-2356,16520,-11,-170,-6
769379994,-5416,-296,15708,174,-567,-311
769381680,-3700,456,15692,-123,-356,293
769383334,-3732,-448,16620,-205,-336,374
769385059,-3500,-1068,16568,2,-582,-266
769386752,-2300,104,15676,-11,-249,-82
769388438,-4064,-472,15676,-111,-119,265
769391052,-3576,-3020,15660,145,-477,-409
769392767,-3124,1312,17112,55,-453,-929
769394456,-2196,2192,17016,-103,-635,-85
769396152,-2980,-1660,15896,-363,-239,594
769397846,-3276,-2356,15488,-31,-287,-810
769399539,-3260,228,16144,88,-494,-414
769401233,-3172,588,15660,-64,-499,-212
769402927,-2180,280,15112,-176,-221,-64
769404617,-2436,-772,16480,-287,-53,151
769406309,-2912,-1652,15236,-198,-122,176
769408055,-2476,-1960,14656,67,274,-431
769409766,-2576,-104,16444,-50,521,-304
769411484,-4548,-1936,17356,-86,27,194
769413253,-4432,-2304,15784,2,-109,-342
769415007,-3436,-56,15616,46,139,-609
769416732,-4128,-380,16568,-133,-255,-27
769418419,-3364,-1536,17372,-66,-354,-159
769420091,-3004,-1044,16804,116,-228,-780
769421756,-2812,748,16252,67,-372,-441
769423462,-2700,-336,15152,-88,-233,98
769425131,-2272,-1280,16064,-75,0,-116
769426852,-3088,-588,16628,244,-246,-686
769428551,-836,2800,15304,-66,-135,-399
769430257,-1156,2780,15868,-340,182,320
769431962,-2252,-884,15656,-333,59,535
769433718,-2272,-756,15624,-73,252,-304
769435477,-2908,-388,15460,-155,31,280
769437339,-2740,-692,15536,-145,302,-35
769439211,-3212,-140,15604,-171,345,35
769440966,-4192,-1252,16292,-260,145,424
769442685,-3920,-2488,16880,-104,109,62
769444420,-3416,-2124,16340,88,77,-203
769446132,-3544,-1476,16380,132,178,-240
769447917,-4320,324,17064,29,-35,-95
769449616,-3524,-552,16520,-71,-123,445
769451310,-3696,-1636,16312,-23,-177,431
769452995,-3864,-1632,16148,143,-268,-175
769454686,-3708,380,15988,186,-214,-111
769456376,-3576,1052,15860,100,-379,171
769458115,-2364,76,15428,-136,-399,561
769459834,-3520,-548,15848,-121,-73,231
769461597,-2924,-160,14876,-72,-143,338
769463337,-2524,-816,15100,-93,-18,562
769465067,-3820,-2628,15944,-126,99,424
769466808,-3572,-1740,15452,36,265,-136
769468538,-5300,-1296,16536,8,207,317
769470222,-5708,-1964,16480,-26,-42,293
769471889,-5424,-1952,15840,-41,-5,-285
769473722,-4976,-1220,16772,97,-87,-325
769475439,-5244,-40,17940,32,-298,-474
769477127,-5320,200,17436,-76,-494,-146
769478904,-6084,-2472,14896,-22,-828,413
769480586,-3168,-1488,15328,293,-459,-1319
769482244,-2408,2472,18380,108,-131,-1477
769483896,-2892,4476,16704,-518,-591,1114
769485552,-2424,-2016,13944,-557,-80,933
769487209,-2892,-2720,15344,-393,274,24
769488902,-4336,-124,16596,-178,-57,-17
769490599,-3560,8,14076,-120,-387,753
769492313,-2820,-892,14364,-227,-94,834
769494020,-4048,-3476,16212,-132,-118,545
769495735,-3512,-1068,14464,181,-78,-234
769497458,-3348,-1452,16284,-18,149,660
769499200,-4344,-2368,18064,-89,73,314
769500913,-4160,-1528,17764,26,-318,-455
769502626,-3632,724,16796,-148,-53,-138
769504342,-4140,-1116,17604,-295,-368,312
769506056,-3844,-2016,17020,-218,-510,-5
769507766,-2704,-1212,14876,-85,-152,-411
769509499,-3180,92,16728,-165,-210,-349
769511213,-3108,644,16412,-232,-499,-241
769512925,-2292,-120,14860,-314,-394,152
769514660,-2328,-380,14612,-215,-333,-118
769516468,-1652,-1524,15712,-192,-122,321
769518284,-1600,-2948,15244,284,106,-432
769520215,-1136,-1292,15252,525,410,-1072
769521980,-1872,1048,16948,375,662,-251
769523689,-2664,244,17184,148,456,-436
769525374,-3300,2356,16456,58,136,-506
769527051,-2152,1868,16552,-71,160,216
769528805,-4468,-2904,16904,-150,51,488
769530582,-2800,-1124,15664,261,-351,-1765
769532302,-540,4784,17248,-213,49,-410
769533998,-1200,2752,17272,-589,-11,843
769535689,-1360,-3540,15852,-640,435,-161
769537374,-5148,-3820,16232,-18,26,-845
769539080,-4356,-2824,14440,127,-306,-1074
769540782,-924,1120,15664,-164,706,-813
769542475,-2988,-2704,17404,-410,38,586
769544178,-1336,-4848,15344,-141,19,-370
769545882,-2320,-540,15432,253,648,-1708
769547581,-2172,-612,15248,44,679,-19
769549277,-5324,-2508,17292,-22,221,-822
769551042,-4372,-956,16016,27,-52,-1236
769552750,-2568,1960,16396,-39,344,-285
769554462,-2600,-1980,17624,-29,229,782
769556176,-2800,-3956,17196,109,108,248
769557884,-2236,-84,15932,307,510,-1318
769559589,-4716,3000,16720,0,480,698
769561414,-4800,-2520,15356,-76,-189,694
769563968,-3488,128,16212,8,249,-534
769565756,-3584,-1164,16264,112,-261,1078
769567457,-2792,-1836,15720,267,240,-306
769569154,-3432,836,16536,185,205,-527
769570850,-3092,2440,16340,-259,-18,974
769572555,-4412,-860,14644,-224,203,918
769574232,-4156,-1248,16136,-77,293,106
769575891,-4368,-244,16480,-90,160,46
769577570,-2956,-696,15156,-182,314,622
769579234,-4920,-1440,15796,-196,553,372
769580878,-4480,-1152,16028,-222,339,192
769582581,-4172,188,16704,-377,627,202
769584247,-6272,-892,16696,-408,89,665
769585948,-5900,-2328,15732,-343,-75,540
769587640,-6012,-2448,16752,-142,-19,-296
769589318,-4296,-940,17088,-67,-373,-127
769590993,-4076,-1676,16648,-72,-435,317
769592726,-4288,-4096,16244,79,-267,-106
769594413,-4700,-892,15500,372,-235,-1171
769596138,-3376,1476,15948,330,-300,-911
769597851,-2292,608,16572,-140,-115,428
769599549,-3480,-1900,15192,-120,-71,-471
769601247,-2532,1168,14396,42,82,-944
769602944,-2292,1788,14896,-93,108,-291
769604649,-3184,-1144,16096,-358,223,153
769606358,-3316,-1460,15220,-47,95,-847
769608095,-2688,92,15632,12,214,-991
769609807,-3204,544,16516,-197,231,194
769611534,-3524,-1816,17004,-332,298,-213
769613256,-3008,-272,17020,-144,177,-480
769614951,-2888,-216,17340,-159,145,-25
769616708,-3792,-1100,16920,-131,-35,-130
769618440,-2236,552,16804,-228,42,-488
769620136,-2128,484,16664,-205,56,-47
769621821,-2852,-864,15624,-200,73,57
769623529,-2792,-1008,15244,-139,-241,-170
769625221,-1668,-1056,15328,-120,102,57
769626912,-2084,-1588,14948,-77,85,266
769628597,-1888,-2568,15848,141,125,-408
769630280,-776,1368,17096,53,457,-466
769631960,-1516,1612,16664,-209,433,372
769633716,-2728,-2352,14820,-265,270,424
769635433,-2020,-1160,15588,-53,840,-720
769637152,-3656,-860,16428,-28,430,301
769638860,-3304,-2072,16468,-50,254,216
769640569,-3140,-364,15748,-43,422,-645
769642276,-3040,220,16032,-120,468,214
769644043,-3144,-1324,16576,-53,342,297
769645773,-3076,-1044,16640,37,367,-690
769647500,-3864,908,16896,-40,412,-38
769649214,-3876,-624,16352,14,146,237
769650923,-3584,-404,15412,15,129,-151
769652631,-2840,396,16288,-128,302,98
769654355,-2808,-964,15612,-129,378,438
769656083,-3388,-1232,15144,-97,401,141
769657800,-3532,520,14660,-112,373,-86
769659508,-4188,-296,16560,-378,635,556
769661229,-4376,-1388,15872,-254,265,98
769662970,-3456,-1628,15708,-167,323,31
769664823,-4296,-2616,15916,-15,506,187
769666583,-4292,-2300,16308,184,501,-357
769668292,-5104,-88,16876,-20,284,-125
769669974,-4964,-272,17024,-96,151,186
769671654,-5464,-1200,16540,24,11,-47
769673342,-2944,-156,16128,-39,-49,-241
769675083,-3588,-564,16448,-164,113,142
769676759,-3348,-1232,16372,-113,79,72
769678429,-4272,-1412,15584,63,171,-25
769680113,-4184,-1508,15244,27,-47,-239
769681780,-3312,-956,15936,9,107,-462
769683438,-2540,1228,16676,-88,239,-178
769685150,-2812,64,16020,-219,144,284
769686829,-2712,-1020,15940,-210,275,237
769688523,-5380,-1308,16416,-169,316,-136
769690211,-3632,-872,14720,28,96,-224
769691893,-3464,116,15468,-53,342,-338
769693581,-3876,616,17368,-281,269,220
769695330,-3396,-1344,16556,-275,151,294
769697040,-3716,-980,16224,-215,339,-134
769698810,-4268,-864,15800,-138,225,89
769700541,-4104,-1800,17104,-49,72,-101
769702258,-3540,60,16612,-88,-55,-326
769704051,-3408,-28,15760,-198,-253,263
769705799,-2788,-932,15564,-189,-175,230
769707517,-1924,-1488,16052,-104,135,-65
769709227,-2272,-652,15324,-70,-48,-203
769710996,-1600,-348,14648,-113,375,-14
769712715,-2292,-360,15568,-116,568,29
769714423,-2744,-136,16040,-268,374,-49
769716136,-2876,-544,15800,-320,456,62
769717873,-2564,-840,16212,-277,621,-90
769719609,-2820,-1060,16612,-129,614,-70
769721299,-2788,-1192,16836,-194,372,-182
769722974,-2976,-756,16320,-239,415,-283
769724639,-3596,-1128,17008,-112,328,96
769726309,-3712,-1848,16844,46,-94,-217
769728052,-2304,-256,16376,-32,36,-421
769729761,-2200,380,16436,-102,185,-207
769731467,-1672,184,16032,-139,211,136
769733173,-1828,-880,15288,-122,422,191
769735957,-2656,-1252,15168,30,597,-24
769737765,-2556,-448,15048,25,696,-120
769739460,-3304,664,15484,-122,700,420
769741154,-3024,-1796,15728,-165,660,524
769742887,-2952,-2452,16048,-65,800,137
769744582,-4160,-1168,16260,-12,623,-146
769746273,-4400,-1052,16240,-36,671,197
769748058,-5600,-2516,17468,-2,437,245
769749763,-5392,-2784,17356,32,169,-46
769751467,-4504,-1748,16608,165,226,-277
769753185,-4460,-1296,16672,298,142,-95
769754907,-3468,-1084,17540,284,132,-186
769756619,-4240,-268,16916,126,117,16
769758352,-4688,-344,15012,53,64,49
769760127,-4072,536,15132,35,79,-160
769761844,-3292,564,16196,-18,117,77
769763626,-3264,-1592,15340,1,221,336
769765402,-4212,-1556,14856,261,318,-378
769767135,-4184,688,15420,105,277,173
769768864,-4436,8,15660,-26,352,692
769770557,-5424,-2480,17128,110,263,191
769772230,-3844,-276,16904,190,25,-342
769773904,-3648,452,16292,113,190,109
769775577,-4408,-992,17100,-21,502,404
769777247,-6044,-2852,18152,53,84,238
769778988,-6996,-2916,16068,273,-565,-454
769780821,-5204,-1048,15708,323,-463,-810
769782621,-2704,1768,18152,85,-304,192
769784347,-3780,-2432,16736,-61,-728,604
769786076,-3164,-1428,14704,243,-291,-903
769787788,-3992,784,14828,255,-186,-681
769789474,-3332,84,15156,74,-447,547
769791157,-2788,-1716,15884,42,-167,-105
769792840,-2804,-928,15392,127,-170,-435
769794521,-1508,1084,15148,213,115,-113
769796201,-2800,-48,16060,-115,389,554
769797880,-4472,-1588,15100,-73,281,507
769799608,-3712,-988,16836,119,383,-776
769801315,-5216,1560,17680,-57,115,90
769803028,-4508,-1456,17132,-165,-323,295
769804738,-4588,-1756,17208,-95,-213,-134
769806448,-4040,-1372,17492,133,-402,-340
769808160,-2792,828,17648,179,-489,-662
769809895,-2192,2656,16960,-295,-523,396
769811614,-2508,580,16032,-430,-379,1123
769813332,-4484,-3692,15128,-105,-531,160
769815041,-1656,112,14704,112,-517,-992
769816751,-1196,2144,15304,-51,-115,-487
769818468,-1720,528,15888,-423,-218,858
769820230,-1084,-2988,14396,-308,219,-140
769821933,-2784,-1104,15552,-35,507,-422
769823581,-3508,-488,16008,-17,372,-114
769825226,-2812,-1428,16584,-136,149,270
769826874,-3592,-1964,17416,-56,116,-39
769828518,-4008,-1368,16572,14,66,-240
769830205,-3052,252,16656,3,-70,-131
769831896,-2676,-1036,16876,-157,-111,455
769833607,-2752,-2820,16512,-88,-57,497
769835316,-4972,-4048,16944,347,-55,-427
769837024,-3776,-380,14992,504,-624,-907
769838732,-1980,2092,15096,285,-314,-680
769840498,-2308,928,16964,-246,-240,1012
769842197,-1400,-4120,15664,-7,8,-116
769843892,-2432,-132,15188,224,262,-860
769845587,-2632,616,14572,127,359,-70
769847284,-4892,-2052,16164,63,351,189
769848977,-3004,-400,15992,165,104,-1005
769850730,-2616,1660,15792,72,302,-721
769852432,-3716,224,17004,-109,238,605
769854142,-3864,-1016,16692,38,253,-442
769855849,-4468,892,17072,-97,-46,-67
769857555,-4904,72,16888,-137,-142,404
769859260,-5240,-520,17136,5,-99,-132
769860972,-4032,148,17300,-81,-527,270
769862785,-3488,-2660,16692,-68,-324,329
769864655,-3692,-1540,15776,262,-197,-558
769866808,-3772,1200,14884,42,-365,90
769868612,-3260,592,15424,-156,-362,516
769870338,-3372,-1852,15584,-253,-33,260
769872176,-3964,-2108,14624,-2,-117,-151
769873918,-3000,-1752,15536,71,172,-430
769875659,-3532,-796,16288,0,277,-495
769877394,-3780,-900,15676,-50,-18,152
769879084,-4312,-2156,16416,88,222,-351
769880760,-4888,-1036,17564,87,154,-719
769882503,-5040,132,16392,60,-158,-74
769884194,-4240,-392,16852,83,-351,-184
769885899,-3468,-244,17068,-38,-290,-195
769887598,-4036,-416,16532,-5,-269,-96
769889292,-4332,-620,15940,130,-544,-221
769890993,-3048,-80,15940,-6,-493,-269
769892752,-2436,192,16036,-60,-266,-164
769894459,-2464,500,15712,-38,-222,-186
769896187,-2820,640,16100,-208,-197,-1
769897915,-2512,-940,15496,-234,-308,261
769899628,-2428,-1472,15264,-223,-19,-35
769901363,-3028,-892,15512,-53,29,-196
769903159,-2684,-220,16352,-169,36,-343
769904873,-3204,-28,16904,-275,-64,150
769906577,-3108,-1104,16608,-247,-118,242
769909028,-3328,-1068,16648,-50,-140,-335
769910736,-3380,-400,16424,-110,-307,-1
769912437,-2652,-804,16516,-105,-289,123
769914129,-3136,-1888,15472,-101,-407,9
769915847,-2032,-636,16112,-73,-127,-638
769917541,-2380,236,16004,-82,39,-399
769919227,-2884,-1188,15356,-41,-295,109
769920981,-2008,-620,15032,-77,-39,-691
769922750,-2376,500,14460,-255,201,147
769924462,-1880,-864,15260,-220,350,497
769926133,-3024,-1860,16180,-103,410,-91
769927799,-3336,-1024,16504,-73,146,-129
769929463,-2548,-644,15628,-38,309,-90
769931125,-3396,32,16252,-58,651,-3
769932786,-4232,-820,16152,-23,159,140
769934498,-3368,-1312,16872,-50,158,46
769936200,-4916,-1968,16888,88,-28,-7
769937912,-3236,-436,15588,173,-115,-318
769939624,-3548,308,16988,20,129,-123
769941335,-3620,-1320,17612,35,-360,255
769943041,-2120,-660,16104,23,-138,-401
769944815,-3304,-904,15696,-90,159,138
769946519,-3700,-1888,16124,-31,211,-15
769948214,-3832,-524,15348,168,-191,-806
769949907,-1440,1860,16740,-186,251,-316
769951601,-2832,1476,16472,-377,257,263
769953292,-2824,-1096,15588,-301,46,117
769955042,-3244,-680,15080,-134,374,-102
769956747,-4368,-1512,16936,-88,9,147
769958455,-4028,-1384,15968,-12,-22,-95
769960165,-3572,148,16056,-46,33,-56
769961882,-3456,-844,16560,-156,-79,283
769963605,-3224,-1612,16492,-56,-119,237
769965475,-3252,-2360,16424,115,228,-11
769967213,-4868,-2088,16088,212,-24,-117
769968920,-4244,-76,16324,117,-71,-307
769970616,-4300,508,16256,1,-55,39
769972291,-3668,-1692,16500,5,-249,346
769973962,-3476,-988,15324,85,-261,-519
769975643,-2528,4,15176,-22,222,-125
769977326,-2704,-200,16224,-26,343,-24
769979006,-5008,48,16232,-115,-59,-53
769980684,-3824,0,15336,-193,-9,-5
769982386,-3208,668,15576,-249,367,-109
769984089,-4084,-284,17060,-237,-76,552
769985858,-2236,-1764,15688,-49,174,-190
769987605,-4596,960,16716,-156,269,58
769989339,-5024,56,16644,-208,21,777
769991047,-5900,-2644,15596,-105,-501,228
769992760,-3384,-612,16600,-8,-345,-352
769994476,-3064,-620,17808,3,-326,164
769996218,-2528,-1984,15900,6,-441,136
769997944,-2548,-564,15600,-37,-120,-513
769999650,-1884,-184,16188,-186,-15,227
770001344,-2604,-1236,15544,-230,275,236
770003042,-4756,-2032,15060,-95,-142,-234
770004736,-2380,-220,16060,-85,287,-945
770006516,-2800,1212,16644,-103,231,-524
770008244,-1724,-1204,15560,-263,7,394
770009959,-2532,-1224,15828,-81,368,-626
770011706,-2756,-56,16584,-37,286,-197
770013443,-3120,-92,16076,-6,157,0
770015158,-4068,-220,16612,-119,10,-326
770016870,-3116,852,16548,-205,27,-276
770018551,-2748,916,16384,-203,99,-42
770020217,-2724,-1536,17004,-158,-114,179
770021944,-2076,-2604,16536,-30,2,-428
770023676,-2836,-544,15012,30,201,-352
770025359,-2104,-620,15300,13,229,42
770027099,-2868,-1384,16724,-65,187,-73
770028780,-2108,-640,15732,-76,128,-494
770030459,-2024,196,15560,-97,398,-546
770032132,-2308,884,15552,-273,577,35
770033800,-3092,-1444,16988,-280,361,44
770035474,-3472,-1776,17372,-218,365,-203
770037197,-3768,-164,16840,-146,152,-177
770038897,-2484,-504,15372,-186,169,431
770040616,-3248,-2344,17136,-19,244,325
770042327,-2880,-2220,17100,148,58,-68
770044077,-1956,284,15856,119,310,-143
770045792,-4832,-732,15764,-70,58,833
770047528,-4088,-1916,13964,109,-93,-121
770049239,-2632,-760,14960,119,48,-353
770050948,-1644,-120,16880,-73,440,328
770052656,-3276,-1228,15692,-127,462,216
770054365,-2644,-1364,15032,-49,587,-32
770056073,-3936,-468,16360,-109,833,-110
770057805,-4572,-1136,16704,-163,328,4
770059514,-4408,-1652,15284,23,473,-154
770061225,-4640,-1516,16576,94,360,-297
770062986,-3888,-16,16952,81,67,-309
770064762,-3864,392,17504,-103,-4,-20
770066553,-3972,976,15592,-218,-26,-35
770068408,-3872,956,15620,-277,12,131
770070097,-3124,-1500,16392,-258,323,441
770071761,-4052,-2044,16484,41,226,-221
770073423,-4512,-900,15572,-5,81,-370
770075079,-3912,-268,15080,-128,291,399
770076749,-4256,-1288,16144,-77,135,252
770078455,-3292,-896,16368,-59,35,-71
770081337,-4928,-1476,15536,-199,34,477
770083087,-5080,-2424,15708,6,169,-230
770084811,-4380,-496,16816,38,-302,-255
770086529,-2600,-856,16748,-161,141,139
770088251,-3528,-1452,16756,-101,256,152
770090039,-3216,-1844,15540,34,90,-170
770091731,-3404,-136,16552,-22,392,-468
770093413,-3764,580,16984,-72,358,-235
770095098,-4660,20,16072,-160,39,244
770096787,-3836,-1176,14876,-86,-196,-173
770098475,-2920,212,16484,-78,23,-381
770100159,-2712,316,16696,-89,-48,-56
770101856,-2560,-1312,15880,-90,-110,32
770103567,-3096,-52,16148,-120,11,-581
770105284,-2552,532,16500,-136,-6,-211
770106999,-2648,-1364,16608,-193,127,241
770108754,-3308,-1512,15192,-64,-41,-478
770110587,-1888,456,15860,-135,319,-359
770112298,-2136,404,16160,-222,333,-3
770114009,-1912,-772,15352,-280,355,-139
770115711,-2588,-192,15684,-281,486,-308
770117408,-2152,208,15888,-349,571,-232
770119101,-2904,-304,16568,-310,541,175
770120802,-3572,-1384,16740,-160,108,-113
770122475,-3212,-288,16368,-201,308,-110
770124196,-3356,-576,16324,-153,183,295
770125948,-2308,-2000,14784,-9,-124,61
770127740,-1420,-648,17188,26,520,-365
770129470,-2908,-632,15848,-118,554,455
770131223,-3344,-1348,14716,-142,426,321
770132914,-3076,-1460,15352,-104,758,-218
770134588,-3944,-1056,17436,-69,633,-23
770136262,-3908,-1208,16600,-54,335,-8
770137934,-3388,-836,15144,-138,362,-270
770139597,-3696,-1468,15544,-178,446,-70
770141318,-3552,-2164,15500,40,347,-206
770143021,-2600,-400,16400,169,325,-883
770144734,-3700,872,16580,-83,446,42
770146449,-4176,-1248,16128,33,192,64
770148167,-3552,-764,15572,163,176,-437
770149881,-2792,1112,17036,39,447,-73
770151595,-3376,-600,16580,-79,455,432
770153312,-3712,-728,15420,-96,476,-18
770155025,-4200,260,14900,-103,327,113
770156739,-4176,-532,16116,-195,493,102
770158453,-4332,-204,16544,-244,403,-46
770160165,-4148,-348,15716,-302,284,73
770161923,-4244,-1960,15840,-266,312,311
770163644,-4768,-3392,16336,28,302,-48
770165398,-4432,-1760,16540,109,377,-351
770167221,-5304,-696,16656,41,217,-130
770169002,-4556,-924,16800,60,-89,116
770170740,-3400,-328,16572,72,273,-155
770172604,-4376,736,16544,8,34,61
770174286,-3396,88,16948,-42,-64,466
770175944,-5440,-2024,15404,65,-7,559
770177600,-4380,-464,15496,186,-175,-147
770179259,-3228,792,16348,15,-150,134
770180918,-3372,-932,16796,-196,25,974
770182617,-4128,-1516,15424,54,-346,-105
770184316,-3412,740,15252,-77,35,413
770186038,-4708,-736,14780,-209,22,1039
770187759,-3740,-4364,15792,2,205,258
770189479,-4240,-1696,16088,325,54,-498
770191194,-3028,-464,15896,298,96,-289
770192937,-3656,-768,17548,116,602,304
770194651,-4184,-1072,16984,52,111,-425
770196369,-3968,1756,16648,50,22,-266
770198081,-3744,948,17688,-12,-18,356
770199795,-4448,-1404,17508,45,-319,-5
770201511,-2792,732,15548,83,-508,-613
770203247,-2252,1512,15672,-12,-345,-160
770204962,-1620,-196,16328,-56,-372,304
770206676,-1212,272,15872,-157,153,-267
770208433,-3048,584,15616,-386,-181,507
770210284,-1176,-240,15416,-354,287,-22
770212178,-1728,580,16104,-436,474,40
770214105,-2560,-1128,15936,-644,10,993
770215830,-2128,-4636,14052,-299,271,340
770217509,-2308,-3876,15024,344,560,-494
770219173,-2380,-2224,15576,448,510,-758
770220885,-2248,-136,16652,269,506,-129
770222623,-4368,-2892,17728,205,643,95
770224342,-5324,-2408,15044,753,-427,-747
770226073,-2508,-1056,14772,844,-154,-933
770227769,-2572,500,20104,433,782,-282
770229451,-3024,-184,17804,207,-93,-441
770231135,-2364,508,15368,182,-59,-651
770232816,-1388,1756,16100,-68,916,-303
770234558,-3868,-368,17492,-241,725,216
770236258,-3532,-1428,15344,-138,297,-546
770238015,-3984,-84,15000,-136,438,-814
770239729,-3868,1560,16876,-235,322,-94
770241444,-2912,228,16176,-484,106,575
770243159,-2908,-1888,15924,-491,104,769
770244872,-3084,-4512,16624,27,258,-139
770246608,-2984,-1072,16136,500,496,-507
770248319,-4868,-900,16068,207,137,690
770250029,-4696,-2276,16428,170,92,660
770251734,-4376,-1972,17020,409,213,-361
770254292,-2660,1060,16088,248,68,117
770256042,-3672,976,16060,58,249,360
770257762,-3980,-224,15776,-189,272,380
770259467,-6512,-2404,15048,30,-119,329
770261171,-5212,-2324,14328,181,-339,-177
770262871,-2980,256,16116,182,692,-151
770264573,-6112,-564,17336,-138,-230,805
770266601,-3576,-1180,15448,-54,118,-282
770268495,-4692,2248,16556,-174,243,-67
770270198,-3472,1396,16728,-266,240,761
770271875,-5292,-3372,17696,-265,201,651
770273540,-7520,-3196,16608,249,-585,-585
770275198,-6476,-1576,14828,399,-699,-516
770276855,-4484,88,16100,214,-263,9
770278563,-3656,-456,18640,30,-768,143
770280250,-2960,-1412,16180,186,-589,-325
770281943,-3188,-416,14876,297,-439,-632
770283655,-3780,2668,15316,42,-427,-325
770285407,-2784,616,16096,-451,-271,738
770287132,-2932,-1644,16188,-385,-208,737
770288860,-3020,-2248,15100,28,-344,-686
770290560,-1320,1340,14956,12,-5,-315
770292260,-3520,-344,14764,-376,411,651
770293951,-4044,-1736,16904,-358,142,212
770295645,-4552,-2328,18208,20,-394,-463
770297346,-3724,156,16284,7,-314,-510
770299104,-4028,544,15656,-94,-253,83
770300821,-3616,-2884,16524,-168,-410,300
770302583,-2368,-2404,17468,161,-199,-947
770304323,-2620,656,16504,121,-302,-491
770306040,-2292,848,16256,-73,-292,-99
770307754,-3176,-1252,15276,-238,-211,269
770309553,-3392,-2952,14996,123,-307,-397
770311271,-2396,956,16004,299,-96,-1201
770312977,-2320,2932,17260,67,-249,-585
770314735,-1612,712,15232,-425,-419,689
770316481,-1668,-2184,15436,-128,301,-249
770318184,-2512,376,17040,29,23,-540
770319963,-2576,704,16428,-92,-109,41
770321678,-3492,-1672,15532,-101,68,233
770323353,-3276,-828,16268,44,-78,-385
770325026,-2484,-240,16268,7,-162,-243
770326695,-2384,676,16600,-151,35,-76
770328369,-2200,-296,16020,-327,-127,481
770330089,-1884,-2028,14776,-327,-93,606
770331789,-2560,-3960,15148,52,382,-397
770333503,-3332,-804,15908,227,290,-595
770335268,-3428,-400,16652,25,134,-28
770337054,-3528,-884,16672,-53,70,8
770338821,-3136,-1624,16264,-8,294,-230
770340702,-3952,-444,16976,154,157,-674
770342448,-2176,1728,15400,-60,-71,-103
770344156,-3492,-1424,16224,-263,358,632
770345861,-4196,-2392,16304,-114,300,-39
770347562,-3340,544,15516,114,134,-502
770349258,-3920,704,16340,-184,309,485
770351017,-3412,-556,17284,-166,269,565
770352725,-4248,-1696,16316,-48,173,256
770354439,-4044,-1400,15720,39,223,-88
770356151,-5920,248,16476,77,120,73
770357863,-5456,108,16872,-33,-207,256
770359571,-4780,-1992,16448,-142,-211,340
770361318,-4360,-2800,16264,-15,-175,-268
770363051,-4096,-2804,16120,158,-129,-340
770364764,-4748,-1884,15604,293,-198,-429
770366476,-4060,-316,16980,51,67,-446
770368236,-5864,-408,17424,21,-309,-55
770369997,-5072,-244,16076,80,-584,-412
770371835,-2888,2408,15708,-67,-420,-573
770373530,-2344,572,16120,-338,-170,782
770375191,-3468,-2952,15468,-41,-76,-101
770376851,-4508,-2200,15240,155,-231,-497
770378503,-3084,1508,15196,30,-202,-451
770380199,-3240,1180,16096,-296,-21,806
770381965,-2672,-1100,16908,-274,-102,824
770383671,-3232,-2292,16048,-118,-153,-411
770385386,-2504,-276,16048,-14,328,-272
770387104,-5060,-2548,16420,43,-331,683
770388806,-3584,-3796,15736,5,-289,-5
770390499,-4368,-524,17296,74,-128,-877
770392196,-1912,220,16236,-28,-427,119
770393888,-2164,-860,15688,-19,-253,221
770395616,-2208,-1364,15772,-97,-209,-492
770397343,-2640,-408,16024,-11,87,-515
770399043,-2508,356,15996,37,-226,-234
770400737,-2596,484,15572,-73,-103,-176
770402503,-2960,156,16172,-171,-197,-57
770404213,-1372,-736,15952,-148,65,-25
770405923,-1864,-864,15924,-93,160,-92
770407631,-2108,212,15856,18,40,-316
770409337,-2336,-92,16208,-161,256,236
770411051,-2628,-1260,16092,-125,151,-74
770412877,-3228,-620,16008,-107,60,-279
770414645,-3204,220,16432,-180,-12,-28
770416370,-2268,-572,16692,-246,63,156
770418065,-2640,-2356,15900,-213,21,4
770419760,-2168,-2692,15752,-54,88,-368
770421453,-3132,-576,15792,-14,418,-486
770423144,-2980,-1496,15588,-9,150,-24
770424842,-3216,-1376,16380,-4,232,-412
770427618,-2664,-80,15612,-111,156,-69
770429353,-3052,284,16112,-113,150,-366
770431050,-2068,548,15580,-201,297,240
770432745,-2912,-732,15724,-257,478,532
770434445,-4108,-2440,15856,18,356,-93
770436146,-4044,336,16292,101,227,-302
770437839,-4280,1112,15860,-7,202,198
770439530,-4052,-668,16844,-173,279,613
770441222,-3896,-2148,16412,-82,60,185
770442912,-3836,-2060,16132,5,87,-11
770444606,-4480,-952,15796,9,265,-113
770446311,-4908,-2024,16404,-38,151,354
770448056,-4264,-2424,15968,16,-41,-384
770449768,-3700,-1136,15744,47,192,-617
770451476,-4388,616,16456,46,54,-41
770453182,-3536,-684,16384,-93,-41,252
770454887,-4444,-1100,15996,-159,26,98
770456595,-4248,-468,16104,27,-61,-266
770458303,-3824,1376,15960,-36,-241,48
770460041,-2604,100,16580,-330,-21,497
770461761,-2748,-1204,17084,-352,96,485
770463475,-2964,-2440,14916,-68,25,23
770465191,-5264,-1948,14412,203,-28,-82
770466880,-3820,-2076,15924,280,-100,-72
770468552,-3700,-180,17868,20,145,-218
770470292,-3264,-1104,16168,-70,-634,138
770472047,-1792,-684,15000,15,98,-322
770473998,-2156,-1356,16092,-22,220,-38
770475840,-1912,-1792,16108,-48,221,-256
770477574,-4616,-688,15992,-12,38,-444
770479262,-2696,272,15232,1,368,-443
770480930,-3396,408,17748,-117,157,180
770482598,-3068,-960,17176,-199,-251,183
770484269,-428,-508,16004,41,482,-818
770485995,-4012,1640,16496,-51,351,205
770487689,-3744,-156,15820,-109,-36,768
770489393,-5256,-1632,16444,-139,-120,-402
770491090,-2380,996,15828,-85,-6,-233
770492794,-2460,444,16468,-134,79,436
770494501,-3296,-3360,16204,-80,-296,152
770496230,-1228,-148,15344,-5,389,-1109
770497937,-2412,172,15796,-208,373,515
770499638,-3444,-1876,15772,-318,349,439
770501333,-4896,-2292,15808,-132,304,-743
770503035,-3184,-352,15788,27,184,-531
770504741,-2716,-280,16728,-7,312,-325
770506463,-3440,-280,17308,-132,89,-308
770508185,-2680,-1336,15296,-148,245,-240
770509894,-2788,-336,16592,90,232,-604
770511594,-2424,932,17236,45,204,-567
770513298,-4288,1484,17020,-295,94,300
770515084,-3044,-448,16284,-239,27,66
770516923,-2844,848,16500,-179,-82,49
770518614,-2276,-160,16268,-205,-120,628
770520298,-2992,-3540,15020,-106,265,333
770521972,-2656,-1216,15148,39,436,-669
770523645,-2976,128,14964,-24,409,-121
770525317,-3228,-2176,16616,-192,512,528
770527041,-3584,-1384,16536,-96,395,-651
770528740,-3492,88,15624,-164,342,-550
770530451,-4360,-1232,15276,-275,357,337
770532162,-3356,-2664,16640,-4,630,-580
770533871,-4832,-612,17180,26,43,-373
770535580,-4356,-392,15732,-29,-47,-136
770537348,-3756,-96,16268,-133,368,-63
770539048,-2600,-920,16364,132,-42,16
770540741,-1432,-336,17140,171,200,-371
770542432,-2976,2104,16652,-143,591,280
770544122,-5076,-1764,15576,-168,141,1054
770545814,-3912,-1112,15016,76,144,-485
770547566,-2772,224,15948,36,328,-102
770549270,-3840,-852,16104,-178,120,592
770550978,-2608,-996,16152,-233,544,-197
770552684,-3904,-476,16752,-371,461,-8
770554480,-3788,-3388,16024,-251,191,246
770556307,-5048,-2628,16048,16,227,-719
770558161,-2852,-1528,15776,-43,276,-343
770559882,-3840,-2004,17220,116,-39,-535
770561599,-2292,-816,16764,190,82,-995
770563302,-3264,1932,16600,-31,398,-139
770564998,-3808,-988,15440,-106,-161,292
770566777,-2512,1032,16248,142,168,-736
770568580,-2300,2324,17188,100,207,-167
770570352,-2588,-300,16276,-37,-91,960
770572084,-2656,-896,15036,-55,181,-174
770573766,-2384,224,15660,-57,440,471
770575461,-3180,-1248,16216,-74,352,834
770577138,-3404,-2620,16008,-48,345,-84
770578865,-3804,-828,16176,-142,562,-206
770580563,-4256,-1336,15624,-155,411,145
770582252,-3968,-2168,16792,-70,465,-499
770583926,-4344,-880,16580,-162,340,-400
770585599,-4356,-1800,16800,-194,326,-85
770587280,-4540,-2308,15656,-53,129,-793
770589028,-3844,848,16820,31,107,-1074
770590733,-3144,1060,16340,-186,151,95
770592445,-3476,-444,16600,-248,195,141
770594156,-3252,-576,15648,-53,20,-719
770595866,-3368,1948,16104,8,209,-327
770597573,-3212,1848,16652,-104,252,205
770600201,-4020,-784,16708,-257,81,-96
770601928,-2040,-172,15348,-125,116,-24
770603641,-2516,-120,15144,-122,450,192
770605352,-3512,-3152,16408,-67,73,522
770607057,-2612,-1832,15752,-44,225,-1026
770608777,-2876,708,16184,-149,437,45
770610522,-3740,-836,15360,-177,258,529
770612316,-3228,-2896,16348,-49,235,-490
770614148,-2756,700,16860,-158,310,-637
770615913,-2532,-236,15824,-270,320,270
770617623,-2604,-1132,15580,-196,303,-52
770619322,-2216,-864,16456,-72,531,-353
770621108,-2816,-352,16348,-172,518,-191
770622804,-3496,-68,15520,-64,283,-92
770624490,-3404,244,15096,-83,194,-104
770626183,-2784,-184,16520,-153,427,356
770627872,-3152,-1856,16820,-69,200,278
770629557,-2948,-1412,15544,-57,190,-108
770631247,-3280,500,15484,-22,532,2
770632944,-3120,-2168,16340,-137,560,880
770634642,-3884,-3724,16240,-117,608,444
770636363,-4724,-2060,16148,119,149,-702
770638072,-3952,-192,15416,-18,411,117
770639764,-4112,-1772,16676,-13,312,-38
770641489,-3812,-1844,17160,-44,231,-315
770643194,-4188,-1812,15680,-82,-10,-168
770644892,-3772,-1220,14860,125,331,-568
770646588,-3556,-448,15252,198,398,-456
770648279,-4260,-1340,16160,118,342,124
770649971,-4464,-1096,15640,280,491,-619
770651755,-3688,2300,17212,278,410,-298
770653478,-4104,2324,17128,96,259,376
770655201,-4204,-1128,16672,-20,71,805
770656973,-4860,-848,16916,91,242,-259
770658692,-4452,476,15956,57,-282,291
770660474,-3688,-616,15804,21,-178,566
770662199,-4672,-3512,15804,204,-261,256
770663961,-1940,-1568,15772,406,1,-897
770665713,-3024,1600,16808,-186,296,463
770667428,-3940,-252,15032,-338,290,1086
770669142,-4508,-4580,15388,53,133,125
770670888,-2192,-988,15824,217,543,-1140
770672684,-3824,672,15876,-58,400,419
770674415,-3292,-1656,15664,-4,279,609
770676083,-4632,-2816,17424,347,326,-523
770677755,-4296,-1308,16156,566,-280,-474
770679417,-3824,200,15388,488,-6,-595
770681065,-3388,2376,18188,224,-162,104
770682772,-2572,-288,17912,124,-518,531
770684447,-1976,-1236,16696,177,-260,146
770686131,-3992,-796,16636,303,294,-126
770687812,-4856,-1360,16868,188,-411,198
770689494,-3856,-2192,15160,273,-436,94
770691179,-3132,-256,15592,354,-98,-832
770692915,-1620,1468,15872,124,-46,-70
770694618,-2944,316,13780,-231,-96,141
770696329,-2188,-616,14068,-229,60,-104
770698037,-2732,-616,16356,63,509,-454
770699745,-3228,720,16624,-15,185,-347
770701452,-3360,976,16552,-163,224,-116
770703184,-4060,256,17924,-230,314,10
770704894,-3508,-436,17036,-21,-31,55
770706602,-3380,116,17400,-26,56,-184
770708309,-2964,1048,17740,-129,78,-72
770710015,-3956,-348,17436,-156,-83,812
770711746,-4276,-1520,15876,-14,-563,61
770713548,-3728,268,15536,-189,-223,278
770715300,-3852,-1084,15848,-291,-262,911
770717002,-2852,-5472,15052,-8,-297,119
770718690,-2048,-1244,15264,193,-21,-1367
770720372,-1644,692,15008,7,167,-482
770722056,-2760,-2920,14828,-197,458,579
770723803,-4152,-3264,15644,75,366,-933
770725513,-3712,-728,15964,228,241,-691
770727234,-3360,412,16368,168,436,-664
770728948,-3948,1636,17392,-177,335,-66
770730656,-4140,-1796,17336,-100,66,347
770732380,-4452,-2276,17536,119,90,-393
770734122,-5124,628,17728,394,-231,-440
770735851,-4328,252,16240,127,-618,464
770737565,-3976,-480,16636,39,-485,198
770739275,-2976,-1152,16836,160,-617,255
770740984,-956,-488,15760,150,-240,-297
770742694,-2316,864,14560,-303,211,270
770744408,-3088,-928,14032,-385,328,830
770746105,-4504,-4628,14992,47,277,-300
770747801,-3248,948,15896,200,122,-1164
770749493,-2604,1044,16792,-246,309,755
770751182,-3624,-1640,17144,-284,241,814
770752876,-4008,-2972,16296,135,34,-640
770754629,-4996,800,17696,317,-22,-810
770756335,-5448,2244,18300,187,-363,-383
770758041,-3196,1268,15936,-248,-659,674
770759752,-3532,-3608,15924,-32,-401,382
770761466,-1732,-2576,15296,498,-133,-1056
770763178,-1984,64,15000,435,116,-962
770764955,-3332,408,16044,-81,18,490
770766651,-3808,-3236,16000,8,36,-125
770768332,-4072,-1776,15316,144,191,-1130
770770015,-3484,1732,15328,100,-128,-323
770772986,-3520,-2532,16120,22,273,-540
770774782,-2984,-852,15452,282,377,-934
770776484,-6296,356,18024,122,31,-463
770778192,-5732,872,17076,-15,-328,-526
770779863,-3864,968,16732,-122,-185,-100
770781523,-2516,-1168,17548,23,-372,-283
770783175,-2608,-184,16604,10,-161,-833
770784829,-3444,1156,17032,-183,-7,80
770786486,-4832,-2720,15944,51,-672,278
770788178,-3812,-2124,14788,141,-572,-810
770789880,-1928,1832,15840,-100,-45,-102
770791575,-2832,-2084,16616,-211,-347,613
770793266,-2488,-3076,15456,-2,-361,-166
770794962,-1824,548,15568,97,102,-807
770796732,-2684,1204,16704,-208,174,322
770798444,-4184,-1404,16476,-309,-135,372
770800177,-3956,-2408,15896,-173,-250,88
770801892,-2800,-216,16092,71,13,-730
770803602,-2572,1068,16168,-226,48,519
770805318,-2456,-1092,16364,-382,-8,834
770807060,-2896,-2796,15984,-113,182,-290
770808779,-2996,-128,15492,122,226,-419
770810502,-3464,144,16164,-190,262,326
770812227,-4444,-640,16420,-293,124,301
770813977,-3912,-1656,17116,-94,7,-166
770815763,-3412,60,17120,-39,-34,-415
770817571,-2956,-388,16696,-241,-180,386
770819432,-3620,-3332,15696,-67,-74,-40
770821236,-3420,-3240,16652,164,-56,-581
770822987,-2676,416,16076,222,-370,-717
770824705,-2380,720,16128,-149,-177,208
770826395,-2580,-768,15748,-215,-121,-70
770828088,-2168,-976,16072,-190,-108,-204
770829768,-2184,-600,14884,-83,-61,-452
770831440,-2576,-728,15388,-218,277,119
770833113,-3244,-2276,15112,-200,105,308
770834789,-2436,-2716,15088,71,349,-859
770836462,-2716,1488,16520,-75,516,-585
770838136,-2500,1104,16424,-209,451,213
770839835,-3116,-2192,16776,-150,648,113
770841544,-4492,-1056,17600,-16,537,-556
770843252,-5244,-676,17284,46,321,-123
770844963,-5212,-788,16392,219,-174,-203
770846670,-4132,904,17016,26,-166,-33
770848403,-3724,-2956,16652,-3,-397,592
770850111,-3588,-3476,16360,248,-319,-350
770851818,-2244,1960,15952,325,-173,-989
770853525,-2900,1144,15932,-277,-13,1002
770855234,-3828,-1880,15344,-329,58,928
770856940,-3336,-2020,15400,7,164,-959
770858670,-2664,1528,15252,-73,175,-326
770860390,-3092,-2452,14688,-233,425,724
770862110,-3528,-4608,15124,-16,579,-2
770863820,-5236,-724,16728,144,429,-1544
770865530,-4400,1632,16852,-136,248,231
770867238,-5672,-156,17280,-189,251,498
770869021,-5068,-2052,17572,2,-248,-543
770870706,-4132,-224,16852,13,-250,-474
770872378,-3556,-1004,16388,188,-230,-198
770874067,-4048,-544,15852,222,-245,-367
770875808,-4036,-972,15644,56,-475,239
770877538,-3312,-1416,14960,91,-281,-501
770879225,-2044,276,16160,206,-157,-853
770880908,-1924,2212,16068,31,-231,69
770882581,-1600,-496,15420,-284,156,362
770884241,-2932,-1236,15692,-300,474,106
770885898,-3892,-2108,15328,67,-176,-41
770887554,-2936,392,16328,66,289,-679
770889263,-2608,584,17072,-223,96,569
770890959,-2412,-920,17180,-305,109,443
770892677,-3236,-364,15816,-165,162,-358
770894387,-3936,-412,16876,-154,307,301
770896096,-5028,-1568,16884,-103,-50,413
770897805,-3552,-1524,16376,-60,-353,-596
770899607,-3084,768,16264,-118,-71,113
770901409,-3056,-1524,16544,-108,-292,164
770903171,-2108,-1484,16276,-70,-318,-279
770904906,-1476,-1048,16260,-231,70,29
770906620,-2464,-2100,15192,22,100,-196
770908330,-2884,764,15784,42,268,-605
770910129,-2764,1112,16376,-168,83,80
770911897,-2584,-1580,16052,-327,139,235
770913716,-2484,-244,15248,-48,203,-625
770915700,-1532,820,15688,-258,401,158
770917486,-2684,-2764,16184,-283,587,349
770919205,-4276,-2176,15900,56,402,-856
770920921,-3576,-336,16576,97,278,-788
770922604,-3652,952,16720,-168,233,169
770924277,-4216,-2116,17256,-256,203,355
770925947,-3916,-2860,17512,-148,117,-279
770927613,-2564,152,16200,16,-75,-806
770929279,-2356,-284,15372,-132,322,462
770930994,-3096,-2092,15844,-128,452,352
770932697,-4724,-2192,15660,25,0,-749
770934421,-2736,1320,15088,141,15,-721
770936142,-2640,2648,15672,-18,280,-310
770937856,-2732,276,16832,-379,192,857
770939569,-2924,-2268,16056,-268,167,-186
770941311,-2040,-152,15660,-58,543,-182
770943021,-3088,-164,15568,-48,676,325
770945607,-3400,-1932,15844,-65,175,-328
770947345,-3560,32,16176,-160,614,38
770949064,-4404,-872,15900,-116,411,471
770950777,-3844,-2872,15948,75,375,-193
770952494,-4284,-1456,16664,-58,347,-454
770954205,-4920,-1508,16356,7,295,-271
770955899,-5044,-1232,16664,76,151,-434
770957603,-3652,-708,16684,-33,67,-327
770959305,-4192,-1484,16480,-64,146,-571
770961015,-3104,-1036,16752,72,117,-856
770962744,-2756,1588,16312,10,190,-604
770964483,-3712,60,16848,-145,185,262
770966197,-3776,-424,15812,10,-261,-336
770967894,-2316,336,15640,15,-133,-418
770969587,-3052,256,15392,-60,-3,451
770971281,-1572,-1700,15404,65,232,-131
770973056,-2040,-316,15676,43,385,-528
770974732,-2408,236,16840,-203,568,438
770976404,-5012,-2936,15348,-67,337,317
770978068,-4000,-2856,14944,132,491,-446
770979739,-3956,1088,17300,55,473,-540
770981402,-2524,-772,17424,-233,190,462
770983112,-3540,-1816,16624,-217,378,28
770984765,-4372,-416,16284,-37,108,-503
770986429,-4540,-432,16212,-130,-178,66
770988120,-2992,-288,16652,-143,-256,-371
770989804,-2520,540,15892,-114,-144,-244
770991474,-2556,-12,16468,-128,-228,289
770993201,-1368,-896,15728,-186,59,122
770994899,-2604,-960,15428,-253,263,170
770996610,-2596,-1688,14156,-60,288,58
770998318,-3672,-476,16788,-136,380,-215
771000059,-4284,-324,16636,-213,78,146
771001775,-3100,-1580,15492,-185,241,72
771003514,-2704,-1392,14292,-59,115,-193
771005226,-2092,-992,17740,-282,764,-317
771006958,-3800,-848,17480,-331,605,-112
771008668,-3620,-1068,16680,-313,337,-66
771010431,-4204,-1780,17028,-159,598,-232
771012191,-4808,-188,17596,-62,14,-396
771013944,-2928,252,15720,-96,-12,-208
771015648,-2880,680,16364,-140,490,-115
771017396,-3912,352,15784,-128,-59,96
771019118,-3276,-944,14584,-100,197,121
771020798,-3356,-1032,15528,-113,222,-58
771022468,-2968,-488,14744,-82,206,86
771024164,-3540,-1312,16372,-68,371,186
771025865,-2760,-1164,16640,-87,424,-128
771027553,-3224,372,16872,-296,504,-97
771029239,-3096,-860,15220,-316,542,230
771030927,-3000,-1680,15112,-217,746,148
771032614,-4680,-2620,17288,-41,514,-262
771034301,-3984,-620,16904,-36,-7,-581
771036046,-3044,472,15416,-238,384,273
771037769,-3596,-1384,16044,-186,279,628
771039483,-2988,-3236,17020,98,-79,-653
771041195,-1516,1044,16756,14,394,-754
771042904,-2732,1388,16164,-120,566,224
771044617,-4544,-2760,15956,-88,-5,441
771046315,-2272,-1404,15516,75,277,-943
771048034,-3100,908,16664,-128,504,-68
771049734,-3000,-304,15912,-140,236,398
771051433,-2452,-1400,15312,-48,602,-526
771053127,-3644,100,15356,-111,476,-224
771054882,-3008,-560,15896,-142,553,-2
771056591,-4420,-1136,15632,-59,452,-144
771058301,-2780,-1904,16224,106,499,-256
771060038,-3880,-624,18204,197,546,-351
771061776,-3892,112,17968,75,372,-250
771063527,-4024,-116,16532,-45,291,215
771065383,-4524,-316,17532,8,99,-99
771067091,-2580,572,17660,59,202,59
771068756,-3940,516,17580,-36,85,297
771070419,-3428,-580,15196,-43,-374,479
771072082,-3160,-524,15088,-89,231,398
771073742,-3032,-1272,14904,-38,204,716
771075428,-3496,-2152,14712,44,244,64
771077167,-2748,1032,15368,-57,653,-70
771078919,-2832,784,16440,-245,770,725
771080646,-4416,-3808,15588,-163,456,719
771082360,-5228,-1988,16016,106,602,-773
771084084,-4692,-788,16172,150,214,427
771085885,-4168,-2204,16944,117,188,465
771087590,-5452,-2260,17820,230,-72,-519
771089298,-4052,472,16900,222,-249,-329
771091006,-3584,40,16028,163,-297,244
771092700,-2956,-544,16676,126,-249,92
771094406,-3396,-580,16980,112,-177,-193
771096131,-2096,1792,15460,82,42,-272
771097824,-2768,2352,15100,-16,133,265
771099525,-3312,-1788,16240,-206,98,983
771101223,-3936,-2624,15380,85,108,-647
771102915,-3292,-284,14008,281,-32,-837
771104622,-1948,1788,15948,-53,471,381
771106345,-3960,-3500,15732,-216,193,914
771108073,-3052,-2172,15288,246,495,-1259
771109783,-3716,1276,16804,212,531,-1106
771111492,-3956,480,17908,-238,184,1065
771113194,-4760,-3880,17324,-60,161,-216
771115100,-2184,1024,16872,111,65,-994
771117843,-3680,-2080,17400,18,-36,783
771119637,-3496,-3308,17276,142,-41,89
771121347,-3904,-760,15780,255,-392,-480
771123020,-2048,560,13896,162,54,236
771124686,-2560,-528,15672,136,237,648
771126356,-2544,-3068,16044,93,-129,-55
771128116,-1992,-452,14136,152,242,-708
771129810,-1912,388,14664,117,556,-274
771131507,-3104,-856,15924,28,662,257
771133203,-3824,-1692,16748,-98,381,-199
771134894,-3684,-2124,16096,78,477,-40
771136612,-3988,-1984,16828,281,487,-300
771138352,-3240,1012,17820,391,251,-587
771140073,-3684,-80,18364,-15,149,820
771141774,-5140,-2372,17088,16,6,691
771143468,-4744,-1392,16684,612,-365,-868
771145161,-2400,3112,16924,360,-434,2
771146855,-2664,-816,16424,-122,-133,1228
771148612,-3380,-3100,15612,37,-181,663
771150317,-2240,-900,14796,388,-142,-944
771152056,-2576,1976,14184,45,483,394
771153768,-2988,44,14876,-78,577,928
771155477,-4136,-1428,15836,-199,453,-409
771157186,-3804,260,15552,-71,399,-186
771158917,-3744,-280,16948,43,588,121
771160631,-4504,-164,17384,-45,507,76
771162342,-5640,-1236,16920,-165,-4,352
771164851,-5616,68,17292,252,-456,-371
771167026,-3856,1048,17444,-94,-333,397
771168865,-4940,-1932,17648,-147,-594,529
771170630,-4300,-2280,16636,60,-708,-54
771172288,-3312,-736,15580,174,-480,72
771173942,-3380,-2284,14708,39,-331,290
771175599,-3344,-1732,14040,24,-169,-257
771177287,-2748,24,15748,54,-81,-150
771178977,-2192,-152,14556,-116,-90,121
771180698,-2600,-652,14432,-200,208,151
771182391,-4464,-1444,16056,-107,469,-49
771184155,-5452,-1088,17000,110,-388,-277
771185897,-3184,300,16208,-82,-215,-218
771187613,-2760,-76,17788,-140,70,131
771189337,-4732,-940,17556,45,-312,-27
771191087,-3176,792,16684,0,-403,-262
771192808,-4324,-448,16972,-209,-359,581
771194525,-3772,-1300,16248,-125,-390,146
771196237,-3772,688,15400,18,-461,-269
771197946,-2804,308,15960,-240,-558,537
771199653,-2312,-1136,15680,-301,-406,551
771201386,-2732,-2080,14636,-84,-254,-215
771203098,-2104,56,15748,27,-135,-388
771204807,-2416,92,16340,-329,-7,353
771206518,-2760,-1388,15344,-338,-69,532
771208234,-2892,-2464,15204,-81,32,-380
771209946,-2780,-220,16476,-3,172,-481
771211753,-2944,-372,16108,-211,-3,222
771213464,-2760,-1572,15936,-279,-90,196
771215161,-1684,-1588,15360,-90,303,-645
771216855,-3376,916,16872,-25,446,-627
771218547,-3200,988,17532,-203,171,-63
771220241,-4072,-2276,15928,-335,-190,383
771222007,-3924,-2184,16300,95,36,-806
771223722,-3392,-460,17208,265,25,-708
771225372,-3160,592,16840,-6,-520,38
771227021,-1356,-632,16032,-215,-269,162
771228672,-1424,-1524,15728,-111,-28,112
771230319,-1948,-1700,15284,211,236,-504
771231979,-3040,912,15840,128,-100,-219
771233727,-2940,-892,15004,-195,136,522
771235471,-3588,-2396,15000,-65,114,377
771237200,-2116,-1200,15564,170,310,-841
771238988,-3300,1816,17192,-127,253,-114
771240703,-3192,-1712,15912,-240,518,542
771242487,-4336,-3044,16300,-124,559,-76
771244248,-5200,-468,16844,92,230,-1046
771246018,-5160,1636,17096,-119,226,70
771247775,-3948,-1580,17000,-144,-187,573
771249502,-4120,-2632,17168,-107,-68,21
771251214,-4336,-1228,17128,241,-292,-643
771252938,-3316,2048,15752,49,-294,-51
771254638,-3988,1212,15588,-182,-327,823
771256369,-4368,-3404,15720,-240,-396,284
771258147,-2256,-260,15132,158,-26,-1176
771259946,-1992,2128,16588,-182,180,324
771261747,-3924,-3544,15284,-339,237,905
771263516,-5360,-4868,14020,-68,296,-11
771265283,-4768,-1500,16128,398,226,-972
771266988,-5172,1668,18184,-46,-122,54
771268661,-4500,884,17104,-191,-465,449
771270331,-3044,-1648,16020,-172,-36,239
771272039,-4016,-1516,16392,108,-78,-485
771273783,-5136,932,17632,31,-101,25
771275487,-6540,-632,17784,16,-641,808
771277209,-2728,-2092,15664,82,-363,-546
771278942,-3636,2184,16400,73,-608,-94
771280679,748,-488,14480,-219,-142,732
771282397,-1252,-1932,16120,-247,413,334
771284239,-3240,-2012,14840,103,-267,-396
771285995,-3876,204,14248,138,15,-457
771287709,-2476,1416,15344,-243,105,150
771289391,-2548,396,16280,-383,127,427
771291754,-1616,-1884,15744,-76,33,-740
771293447,-956,-256,15656,-2,512,-693
771295126,-4868,-468,16600,-239,114,325
771296840,-3832,-1224,17008,-181,183,-526
771298551,-5444,-392,18068,-106,132,-430
771300280,-3856,216,15936,-76,-756,-175
771301995,-3168,208,16336,-166,-332,222
771303691,-1892,-2068,15916,-111,-698,53
771305413,-548,-1568,14632,-20,-390,-426
771307110,-1244,40,14568,-12,-38,-113
771308802,-1864,-236,16092,-292,337,88
771310500,-3844,-1136,15448,-299,162,266
771312199,-1556,-2344,15192,56,455,-511
771313892,-3412,1428,16796,-97,380,-508
771315656,-1808,-1184,15492,-356,359,562
771317340,-2584,-2372,16156,-228,667,-24
771319011,-2624,-776,16524,-56,425,-343
771320696,-4532,-1804,16480,-105,330,221
771322447,-4536,-2016,16352,29,83,-273
771324167,-2652,2072,16872,-128,322,-687
771325916,-4632,20,16740,-414,-21,932
771327583,-3816,-2324,16564,-363,-33,434
771329247,-4332,-1444,17028,7,73,-534
771330909,-2996,-1080,16084,3,-412,215
771332572,-2748,-1068,14596,-42,-117,24
771334240,-1908,-512,16024,14,226,34
771335958,-1312,-616,15832,-15,223,3
771337654,-1868,-756,15000,-94,706,95
771339367,-3364,-1340,15116,-59,794,262
771341078,-5308,-1404,16240,100,314,-416
771342787,-3508,1296,15676,-44,157,-263
771344495,-3148,1396,16484,-236,403,176
771346229,-3860,-1780,17068,-243,151,563
771347941,-3920,-2468,16896,-6,265,-650
771349651,-3540,724,16684,-38,307,-270
771351361,-4632,448,16588,-137,349,360
771353070,-5912,-1864,15780,-172,-208,144
771354778,-3800,-908,15852,-72,7,-463
771356511,-3992,44,16180,12,-50,-320
771358220,-1648,-148,16396,-33,23,182
771359928,-3900,-1892,15108,-129,281,163
771361644,-4912,-1144,14792,101,182,-376
771363366,-4444,-368,16016,74,118,-273
771365146,-3600,-1092,16716,-58,208,303
771367028,-5000,-1532,16400,48,-212,-160
771368736,-2160,-560,15456,80,192,-350
771370406,-2900,-36,16040,11,356,-165
771372066,-3264,-736,16872,-140,299,61
771373720,-5508,-1476,16296,9,92,-23
771375375,-5000,-1364,15840,81,-74,-227
771377076,-4116,780,16276,-47,-121,-368
771378793,-2072,-308,17060,-160,-116,401
771380516,-3116,-1112,16656,36,26,-248
771382238,-3060,-428,16428,120,-40,-318
771383958,-4112,596,16840,-49,-249,158
771385714,-2712,-660,15500,-178,-247,280
771387494,-3280,-204,16208,-126,-54,-103
771389195,-2980,-92,16540,-105,-333,93
771390885,-1268,-992,14704,-236,-56,199
771392569,-2468,-1772,14960,-133,328,15
771394252,-2348,-1620,14744,-92,356,-299
771395931,-3484,-144,15104,-171,464,-135
771397611,-3396,-1480,16920,-290,458,212
771399346,-3380,-1856,16724,-263,463,-117
771401047,-3836,-1136,16364,-85,249,-417
771402762,-2836,-1068,15664,-61,338,-115
771404470,-3460,-1028,17668,-90,375,-373
771406177,-3512,-832,17396,-74,40,-320
771407888,-3768,-844,16812,-17,-42,-185
771409622,-3668,836,16072,11,-239,-661
771411337,-2024,1932,16652,-138,-203,-428
771413054,-1440,76,16628,-471,-88,569
771414765,-1640,-1672,15936,-355,324,-414
771416473,-2284,-1416,14516,-44,392,1
771418181,-2292,-2108,14368,-66,497,22
771419891,-2768,-1448,15836,-63,695,-531
771421563,-3012,200,17448,-8,559,-239
771423297,-3412,600,16500,-34,345,-103
771425010,-2816,788,15832,-254,328,-38
771426672,-2916,-496,16080,-369,477,292
771428322,-2736,-1692,15752,-217,459,257
771430034,-4312,-1832,16676,43,396,-345
771431708,-4208,-1024,16736,91,-69,-104
771433390,-3612,-68,15584,-71,75,-250
771435072,-2832,572,15124,-145,373,386
771436753,-2600,-1172,17240,-104,419,64
771438433,-2704,1044,16556,-194,498,-8
771440166,-2992,180,16212,-296,595,725
771441864,-4556,-2732,15296,-166,504,338
771443571,-4636,-392,15864,65,271,-357
771445284,-3140,336,16100,-34,335,107
771446994,-3616,-1440,17580,-222,408,683
771448701,-3948,-2672,15008,-101,-74,-121
771450413,-3756,-920,15780,5,500,-379
771452124,-4336,-612,16084,16,330,-17
771453834,-4080,-2036,16348,-125,322,-3
771455539,-4028,-1592,15416,-15,54,-364
771457247,-2500,-1000,15408,17,320,-460
771458951,-3476,-536,16700,81,617,-161
771460662,-3792,-828,16180,-59,493,-241
771463570,-3684,968,16196,-15,329,-110
771465388,-4428,328,16748,-44,23,437
771467152,-3972,-688,16196,-76,-81,429
771468891,-3988,-624,15744,-57,94,-116
771470605,-2180,308,16864,47,169,155
771472294,-2920,-132,16488,-22,254,481
771473960,-4152,-2096,16184,-99,336,369
771475622,-4432,-660,16244,-54,160,-342
771477284,-3672,440,15148,-78,87,-131
771478945,-2908,-892,16436,-190,401,592
771480644,-4068,-2696,16608,-98,389,-117
771482370,-3772,24,15672,-130,25,-507
771484097,-3280,532,15136,-206,122,91
771485834,-4816,-2220,16512,-218,272,452
771487563,-4004,-2156,15596,130,-100,-655
771489277,-2892,-480,16000,125,-13,-777
771491063,-2056,1324,15884,-49,4,94
771492775,-2896,-788,16228,-206,542,378
771494478,-3928,-1512,14884,-83,230,-161
771496179,-3100,-932,15384,-52,360,-350
771497869,-3924,120,16452,-114,505,-61
771499560,-3672,-688,17148,-107,320,106
771501309,-3992,-1200,16172,-84,-2,14
771503014,-3124,-1312,16064,-84,71,-129
771504724,-3024,-820,16624,10,223,-160
771506432,-2480,-1140,17008,-41,43,-65
771508158,-3192,-924,16164,-80,146,-186
771509998,-3496,-24,16044,-104,283,-238
771511871,-2492,264,16312,-186,52,-110
771513616,-2124,0,16608,-343,434,-18
771515338,-2796,-1524,15580,-137,387,96
771517044,-2716,-1632,14936,-59,367,-226
771518719,-3368,-576,14996,-49,373,-204
771520398,-3060,-1016,15916,-119,552,242
771522138,-3724,-1296,15760,-73,524,92
771523826,-2896,-376,16328,-30,319,-305
771525573,-2980,276,16772,-205,306,227
771527284,-2540,-1504,16640,-119,616,229
771528949,-3492,-1784,16480,-32,608,29
771530615,-4800,-2520,16640,86,90,192
771532353,-3832,-1452,15936,203,131,-510
771534032,-2736,276,16304,179,313,-421
