Time_us,Accel_X,Accel_Y,Accel_Z,Gyro_X,Gyro_Y,Gyro_Z
509558885,-2360,92,17056,-145,91,386
509560815,-1996,-940,16464,-150,258,409
509562602,-4924,-1468,15860,-71,123,-183
509564390,-3760,440,15496,-43,104,-210
509566211,-3332,448,16020,-139,-3,330
509568043,-2748,-652,15732,-335,96,223
509569781,-3080,-1064,15264,-300,134,204
509571476,-2108,-448,14788,-171,322,-201
509573240,-2444,-536,14832,-258,541,532
509574928,-2920,-2328,15524,-264,681,564
509576605,-4496,-2944,15996,11,842,-419
509578278,-4928,-244,16116,71,480,-449
509579984,-4332,-128,17928,-64,436,-63
509581686,-4556,-308,18616,-171,399,-157
509583366,-3608,-188,17152,-170,-14,-58
509585131,-3508,-540,18196,-239,-20,-45
509586938,-2868,-976,18048,-214,-140,-56
509588694,-3700,-644,16136,-200,-103,-65
509590424,-3200,-728,15348,-142,-340,-206
509592145,-1336,436,16176,-108,89,-185
509593946,-1024,-1192,15452,-134,250,425
509595659,-2140,-1992,13692,-71,307,143
509597362,-2092,-700,13920,89,400,-362
509599058,-1936,68,15040,-101,661,439
509600763,-2228,-1248,15680,-115,727,624
509602468,-3348,-1596,16336,-34,570,-179
509604190,-2728,944,15664,-175,508,-99
509605934,-2668,-1192,16748,-266,909,813
509607660,-3324,-3408,17724,-105,895,558
509609368,-4248,-2728,17824,276,514,-637
509611105,-5136,416,17252,288,192,-155
509612871,-3332,92,17788,69,151,494
509614584,-3684,-396,17620,-78,80,394
509616273,-2388,-556,16596,-49,-84,-34
509617943,-2468,-272,16160,-1,322,370
509619689,-3028,-1376,15140,-14,339,681
509621423,-5568,-3612,14316,228,64,24
509623106,-2836,184,14820,356,316,-916
509624786,-2152,2532,15792,199,454,-386
509626476,-3112,-540,15524,-162,254,1210
509628223,-3272,-3840,15068,110,671,-317
509630018,-4404,1112,15808,276,734,-868
509631725,-4460,2436,16428,133,594,-112
509633406,-6268,-176,17724,-252,331,765
509635125,-5368,-2056,17304,-23,73,-208
509636880,-4616,1084,17852,271,67,-461
509638648,-4184,1744,18604,142,-66,175
509640373,-4424,-1336,17568,-178,-12,844
509642077,-7172,-2180,16560,92,-496,-162
509643781,-5716,-988,16556,145,-761,-434
509645582,-3376,412,15268,-37,-482,233
509647311,-3420,-2028,16128,-76,-378,351
509649076,-1672,-1952,14964,149,-273,-450
509650795,-2152,-744,14388,126,7,-471
509652506,-3376,376,14392,-30,181,-29
509654226,-4000,-696,15636,-140,161,101
509655967,-3788,-820,16184,-110,66,-371
509657716,-3860,88,16368,-26,74,-424
509659428,-2496,444,16236,-47,53,243
509661149,-3912,-1128,17612,-71,407,167
509662933,-5664,-644,17976,87,-127,-155
509664732,-5524,96,18000,116,-271,-142
509666575,-5236,832,17248,-39,-638,274
509668268,-3668,-212,16368,-210,-692,301
509669935,-2572,-1004,16708,-175,-525,236
509671601,-2172,-1328,16068,-108,-493,184
509673282,-3116,-2044,14784,-56,-557,103
509674969,-2992,-1852,14912,-47,-225,-362
509676699,-3424,-828,14508,-21,-150,-468
509678398,-1996,140,15488,-163,-184,-210
509680116,-1780,-1312,15224,-333,-52,104
509681855,-2272,-1668,14540,-164,309,-631
509683914,-2352,484,15764,-93,500,-458
509685895,-3852,-544,17208,-273,244,198
509687756,-4324,-1556,17076,-279,168,52
509689462,-5296,-1072,17312,74,-5,-650
509691149,-3648,2224,17216,-7,-449,-485
509692828,-2532,1572,17752,-402,-245,603
509694501,-2548,-844,17624,-329,-315,793
509696172,-2860,-2944,15872,24,-297,-215
509697893,-3692,256,14528,174,-443,-516
509699590,-2012,1212,15016,42,-337,-17
509701300,-1776,-476,15980,-231,-63,758
509703009,-2004,-2420,15600,-88,-176,-131
509704758,-2420,1696,14704,-104,117,-658
509706518,-1404,3020,14724,-334,229,41
509708356,-1612,-2484,15036,-502,572,1314
509710069,-3352,-4928,16632,52,543,-797
509711762,-4000,988,16216,190,372,-715
509713451,-3324,1736,16636,6,221,199
509715138,-4052,-616,17100,-340,210,500
509716822,-3824,-2072,17912,-110,61,-140
509718506,-3668,-1316,18060,51,-26,-387
509720197,-3248,680,16596,-16,-286,118
509721966,-3920,-1972,15208,-145,-226,586
509723666,-3044,-2752,15152,-3,-48,95
509725329,-2852,-112,16404,162,62,-523
509726988,-1704,1064,15508,-73,-129,220
509728718,-1616,364,15240,-223,206,455
509730397,-3820,-1832,15232,-177,386,299
509732833,-4108,-280,16084,18,244,-497
509734530,-4184,788,16572,-63,107,-198
509736215,-2952,-964,16164,-168,161,499
509737894,-4400,-2696,16540,0,128,-211
509739634,-3744,-1840,17044,120,57,-503
509741330,-3992,384,16932,43,118,-150
509743035,-3916,-36,17072,-50,-67,298
509744731,-4472,-872,16472,-41,-191,16
509746425,-4100,-176,16220,-37,-230,-278
509748119,-2492,1372,16096,-55,-119,191
509749869,-2860,-1040,15632,-196,-101,669
509751573,-3716,-2312,14888,-90,-65,337
509753282,-4064,-944,15304,164,28,-416
509754992,-2580,2176,16148,-156,-21,81
509756699,-2376,1708,16164,-371,37,757
509758410,-3624,-2264,16568,-404,193,606
509760130,-3812,-2256,16208,-45,206,-340
509761850,-4664,-1252,15956,-57,-32,73
509763619,-4324,-1536,15912,-77,-77,71
509765400,-4620,-564,16316,-35,82,-292
509767152,-3476,-48,16752,-157,-252,65
509768889,-3716,-748,16628,-210,-197,174
509770611,-3720,-1248,15972,-191,-204,133
509772302,-3496,-1292,15944,21,20,-252
509773975,-3864,292,16484,-36,-257,-104
509775659,-3360,408,16064,-122,-312,71
509777340,-3008,-212,15944,-261,-57,316
509779014,-2636,-1172,15448,-171,-40,16
509780737,-2916,-592,15300,-109,33,-49
509782443,-2724,-620,15932,-147,95,66
509784175,-3124,-1388,15812,-108,76,151
509785890,-3940,-1224,15856,-24,48,-210
509787602,-4004,-772,16136,-48,23,-245
509789315,-3768,-132,16608,-64,5,-106
509791049,-3032,-592,16236,-188,-191,18
509792760,-2668,-388,16008,-244,31,-375
509794471,-2268,44,16400,-200,140,-299
509796182,-2580,-104,16304,-245,148,179
509797891,-3476,-1840,15920,-228,-15,64
509799601,-3516,-1832,15916,-160,8,-283
509801335,-2636,408,15772,-53,165,-352
509803046,-3196,-148,15792,-213,-41,312
509804756,-2348,-1864,16296,-222,116,-53
509806498,-2280,-1640,16144,-106,263,-293
509808240,-2384,-680,15472,38,316,-129
509809985,-2920,-352,16468,-56,393,-44
509811809,-3668,-1076,16656,-139,181,128
509813501,-3440,-1764,16264,-36,111,22
509815188,-3564,-1064,16456,105,2,-372
509816864,-2724,444,16360,-11,28,-304
509818530,-2208,420,16524,-82,90,65
509820210,-2280,-1316,16576,-172,64,109
509821958,-2148,-516,16100,-29,226,-437
509823668,-2732,336,15384,-20,358,167
509825334,-2660,-444,15660,-50,322,289
509826995,-2888,-688,16564,-99,298,-95
509828650,-2932,164,16132,-118,333,81
509830303,-3292,120,15952,-75,310,230
509831954,-3320,-836,16268,-93,230,267
509833648,-3560,-1440,16496,-147,269,95
509835347,-3976,-1392,16116,-68,227,-27
509837072,-3088,252,16904,17,206,-346
509838786,-3036,856,16368,-333,101,466
509840496,-2696,-1152,15864,-377,208,820
509842206,-4236,-3680,15904,-87,347,-124
509843942,-3740,-1984,15224,178,301,-487
509845674,-4332,-580,16240,126,270,-162
509847409,-3812,-488,16576,36,279,-66
509849123,-4056,-328,16236,-100,111,-305
509850839,-2728,424,15112,-62,181,-178
509852552,-2608,444,16000,-70,482,-112
509854292,-4184,-380,17324,-66,425,198
509856046,-6024,-1372,15612,-104,-234,-47
509857749,-3608,936,15368,-12,111,-431
509859444,-3224,2020,16832,-69,278,14
509861147,-3052,-1304,17024,-262,-2,943
509862904,-3824,-1732,15628,-165,293,-506
509864669,-4412,976,15124,-168,368,95
509866390,-4724,48,16240,-191,346,687
509868086,-5236,-3152,16448,-195,-71,327
509869759,-4268,-1332,16188,-92,19,-638
509871436,-3824,0,16308,-70,2,-325
509873108,-2620,-1172,16088,-108,3,373
509874842,-4176,-2088,17044,-123,143,-309
509876546,-4448,-1060,16412,-130,-7,-597
509878262,-4160,464,16320,-130,-49,-153
509879972,-3260,-492,16312,-112,-218,191
509881729,-2692,-520,17024,-131,-75,-171
509883446,-2640,-232,15700,-127,-121,-29
509885187,-1620,-1168,15308,-103,55,120
509886901,-1880,-232,15268,-11,154,-237
509888613,-2152,28,15872,-147,518,159
509890321,-3144,-268,16084,-201,455,153
509892060,-3628,276,16156,-291,144,-125
509893773,-2580,-484,16224,-346,290,330
509895515,-2400,-1532,16440,-336,447,254
509897235,-3224,-2212,16176,-134,329,-297
509898948,-2412,-1096,16608,-60,367,-403
509900658,-4088,-688,17300,-174,245,31
509902366,-3540,-1340,16724,-160,69,57
509905058,-3420,-708,16456,-112,-87,-435
509906864,-1816,216,16340,-101,36,-361
509908596,-1040,-140,16224,-193,233,12
509910328,-1852,-1104,15640,-182,204,152
509912076,-1864,-1628,14680,72,437,-440
509913779,-2600,1288,16024,33,453,-446
509915488,-1864,1700,16360,-146,334,152
509917265,-2036,-932,16164,-270,497,518
509918930,-2368,-76,15752,-10,519,-384
509920587,-2084,840,16136,-138,691,542
509922243,-3188,-768,16204,-197,681,824
509923970,-4412,-1996,17056,-15,560,-174
509925719,-4024,344,16456,-21,266,58
509927446,-3160,248,16116,-115,268,431
509929113,-3464,-1456,17444,-228,362,373
509930786,-2508,-2516,16812,-52,369,-89
509932457,-3032,-1704,15840,-4,541,-367
509934203,-4140,-292,15340,-45,407,13
509936068,-3796,-772,16680,-224,501,-78
509937955,-3384,-520,16000,-276,243,-157
509939669,-2700,-748,15424,-216,372,79
509941345,-2972,-1412,14716,-170,530,103
509943012,-3568,-1688,15884,8,709,-371
509944676,-4412,-148,16284,1,426,-197
509946341,-4964,4,15888,-101,355,88
509948077,-4644,-1432,16320,13,430,121
509949769,-4180,-468,17212,66,191,-285
509951481,-3184,124,16796,-36,131,-147
509953195,-3804,-628,16016,-175,477,259
509954905,-4680,-1612,15864,-9,469,-98
509956616,-5484,-904,16176,49,81,-147
509958350,-4800,-696,16152,-29,6,-117
509960103,-4372,-156,15664,-128,84,-104
509961822,-2716,-80,15508,-26,82,-21
509963551,-3020,-108,16676,-151,282,105
509965332,-3492,-324,16416,-257,377,107
509967120,-5328,-1124,14732,-103,180,127
509968961,-3876,-680,15612,3,166,-270
509970650,-3624,808,16808,-203,318,66
509972308,-3284,280,16752,-245,195,364
509973971,-2844,-852,15784,-213,435,187
509975632,-3908,-232,16112,-233,381,63
509977290,-3648,-512,16588,-227,431,321
509978994,-5424,-2012,17352,-164,152,281
509980692,-3904,-1264,16208,-72,-199,-462
509982406,-3396,-16,16120,-105,-53,-330
509984125,-2904,-996,16696,-224,-9,528
509985844,-2452,-2952,16588,-123,64,-339
509987554,-2188,-128,15960,-60,222,-707
509989273,-2556,1012,15636,-130,285,-270
509991055,-2964,-740,16120,-183,321,334
509992761,-3372,-1048,16496,-231,96,-463
509994543,-1612,920,15928,-268,256,-268
509996369,-1568,560,15388,-231,377,187
509998169,-1968,-1972,15692,-150,406,138
509999915,-2348,-1032,16164,-58,462,-627
510001700,-2116,1068,15960,-123,466,-10
510003382,-2720,548,15940,-197,450,399
510005056,-3384,-1600,16100,-197,328,278
510006730,-2696,-780,16880,-147,447,-397
510008434,-1512,304,16612,-168,495,87
510010164,-2004,-80,16212,-219,576,275
510011873,-2572,-2144,16088,-191,587,351
510013623,-3300,-2196,16396,-21,700,-411
510015365,-3140,-524,16232,21,511,-543
510017062,-3092,848,16488,-193,461,109
510018743,-3096,-1012,16480,-200,415,273
510020426,-2748,-1700,16244,-131,458,97
510022179,-3060,-1492,15552,-59,371,-142
510023872,-3452,-720,15592,-16,516,-223
510025571,-2904,-216,16048,30,613,48
510027267,-3112,-556,15996,-73,581,163
510028961,-3080,-1168,15576,-46,663,-155
510030653,-3572,340,16112,-48,855,-22
510032408,-3512,-56,15644,-79,833,386
510034116,-5048,-1756,16184,-34,683,118
510035828,-5064,-688,16432,-2,552,-226
510037547,-4992,16,16852,-31,474,133
510039256,-4920,-508,16848,-23,358,267
510040964,-5232,-2416,16752,46,98,323
510042698,-5136,-1568,16988,232,166,-502
510044408,-4356,1024,16488,116,-17,44
510046122,-4340,896,16076,-37,-32,400
510047843,-4284,-1392,16204,-157,183,364
510049558,-4500,-1528,15400,-19,200,-156
510051267,-4332,-1324,15040,30,172,-125
510053054,-4736,-1616,15676,85,241,17
510054755,-4652,-740,16244,145,263,-321
510056449,-4452,492,16120,-62,74,96
510058143,-4124,-204,16524,-88,59,327
510059851,-5116,80,16904,-49,95,-266
510061562,-5120,-68,16948,-115,-255,451
510063267,-4932,-1808,16956,-111,-325,560
510064957,-4692,-2136,16544,116,-266,-500
510066639,-3988,1036,17100,159,-235,-244
510068379,-3164,-508,17028,-130,-317,754
510070120,-3856,-2016,16556,-164,-251,407
510071831,-3908,-1228,15968,90,-284,-478
510073605,-3128,1020,15272,-2,-159,-9
510075277,-3476,472,15484,-193,-184,462
510077459,-3792,-3328,14992,3,-188,-429
510079125,-2764,-1872,15456,184,-42,-1045
510080782,-2588,2600,15748,-58,85,-342
510082437,-3016,-1548,16412,-410,-46,853
510084138,-3336,-3744,16540,-281,111,70
510085835,-3884,-928,16656,101,26,-1084
510087547,-3556,1200,16460,-98,-88,60
510089257,-3752,-204,17188,-271,-74,474
510090966,-4040,-2960,16948,-60,-298,-255
510092674,-2464,-316,16616,141,-425,-767
510094381,-2144,1896,16680,-109,-145,-297
510096092,-2276,1800,17064,-194,-161,85
510097802,-2232,-588,16280,-300,-254,327
510099508,-3564,-1160,15700,-107,-302,-312
510101221,-2760,-400,14832,22,-314,-330
510102932,-1764,920,15268,-46,0,68
510104639,-1572,-1612,15756,-259,-81,766
510106349,-2444,-3124,15220,64,217,-254
510108104,-2444,-1304,15840,214,318,-724
510109860,-1460,2720,16020,-158,295,7
510111606,-2932,-764,16648,-571,427,1108
510113346,-3428,-4524,16676,-61,464,-143
510115119,-4348,-3388,16856,204,380,-715
510116835,-5152,292,16220,219,-229,-429
510118504,-2852,104,16708,-174,-36,417
510120168,-3040,-1132,17532,-204,27,342
510121831,-2488,-2348,17436,105,-159,-274
510123493,-2588,596,16288,105,76,-459
510125216,-2944,1036,16460,-73,189,135
510126918,-4752,-2472,15776,-45,-200,610
510128631,-3108,-1436,15336,215,-111,-940
510130341,-2124,2200,15956,54,7,-71
510132077,-1992,1464,15932,-90,-24,546
510133790,-2272,-1736,14984,-182,109,224
510135523,-3048,-520,16004,-23,388,-529
510137232,-4072,1276,16804,-65,408,-459
510138942,-3516,2104,16372,-317,-37,607
510140649,-3436,-1296,16740,-475,171,816
510142356,-3500,-3236,15764,-83,185,285
510144088,-3440,-3280,16224,234,292,90
510145822,-3892,448,16600,201,238,-254
510147532,-5588,836,17044,-262,30,919
510149242,-6316,-1080,16504,-295,-223,1044
510150948,-4440,-3140,16152,85,-191,54
510152654,-3980,-1056,16636,250,-401,-290
510154363,-2404,-848,16568,-21,-36,407
510156097,-3956,-2124,15948,-40,57,540
510157807,-4476,-2636,15772,156,-105,-585
510159517,-4024,2024,16252,-40,-139,-684
510161228,-3168,2324,15968,-277,-85,224
510162939,-3528,-2812,15564,-358,37,567
510164650,-3908,-2484,15244,117,-72,-1267
510166364,-3032,1604,15792,82,224,-370
510168108,-4380,1056,16000,-110,222,297
510169839,-4772,-1328,17112,-164,-132,-97
510171535,-4552,-344,16736,-17,-322,-438
510173200,-3864,436,15980,-16,-223,-334
510174872,-2944,1360,16316,-140,-21,63
510176602,-3948,-1544,17280,-269,-101,526
510178278,-4596,-2872,16868,-164,-129,85
510179961,-4732,-872,16228,134,-153,-687
510181644,-3748,1148,16552,-73,-514,88
510183326,-3272,-1940,16272,-326,-418,527
510185005,-3284,-2944,15768,-204,-348,-38
510186739,-2152,-616,15208,77,-331,-736
510188493,-1708,308,15544,-164,-82,115
510190295,-2692,-1772,15748,-292,141,222
510192149,-3148,-2364,16136,-166,141,-144
510193913,-3160,-588,16444,-27,-104,-691
510195627,-1808,1192,15836,-301,97,-274
510197431,-2096,-828,16616,-334,336,362
510199131,-2932,-2716,16676,-225,200,162
510200887,-3296,-2540,16396,153,142,-847
510202707,-3596,1080,16324,203,-133,-439
510204506,-2472,-396,17084,-89,-140,493
510206219,-3288,-1892,17684,-83,-212,251
510207906,-2392,-420,16980,93,-420,-829
510209646,-644,2884,15544,-21,-89,-109
510211354,-440,-1264,15512,-349,309,980
510213110,-2360,-3936,15084,-243,419,496
510214902,-4260,-2180,14792,254,184,-1087
510216698,-1912,1940,15672,116,248,-233
510218517,-2324,556,16784,-334,145,425
510220196,-2188,-508,16344,-432,222,159
510221859,-1784,-1040,15728,-160,509,-200
510223590,-3364,-792,16184,-125,569,-147
510225366,-5760,-1784,16740,-137,269,99
510227075,-5272,-2204,16364,-37,53,-101
510228812,-2944,84,16856,30,175,-713
510230499,-2728,500,17136,-95,42,494
510232197,-2792,-1032,16840,-106,88,563
510233890,-3412,-1348,16280,73,221,-291
510235592,-5512,712,15612,47,-270,153
510237299,-3476,-60,14644,16,-309,180
510238999,-2324,916,16164,-15,-74,-225
510240711,-1476,1832,16620,-377,-107,749
510242430,-1356,-3556,15232,-290,473,824
510244161,-2992,-3772,14956,-4,758,-7
510245965,-3572,-88,14688,64,543,-204
510247781,-4584,-576,16772,-290,698,828
510250750,-5976,-3128,16076,-18,-21,11
510252534,-2928,-1052,14748,125,62,-489
510254233,-4476,-180,17868,-159,485,371
510255902,-3964,-1544,17792,-207,182,370
510257570,-6072,-2560,17536,3,334,-279
510259305,-6600,-1404,15028,178,-747,-463
510261003,-3036,-632,14972,115,-190,-497
510262703,-4704,200,18244,-71,-89,43
510264387,-804,-1272,15880,73,-584,-337
510266079,-472,-784,15884,121,172,-560
510267769,-4268,2020,14676,-111,221,-373
510269506,-4200,268,16088,-239,180,580
510271269,-4116,-1720,16176,-118,-194,-300
510272975,-2772,320,16140,-105,12,-865
510274638,-3428,1984,16044,-211,-160,595
510276294,-2112,-2420,15248,-283,191,526
510277948,-3316,-2864,15888,-184,480,-33
510279599,-4072,-1084,17292,76,96,-437
510281252,-4852,156,16888,-89,-152,83
510282932,-5008,-448,16228,-210,-213,293
510284628,-4552,-1572,16196,-223,-250,-22
510286319,-2644,-1856,15628,-134,-477,-177
510288050,-1432,-1644,15436,-60,-290,-344
510289757,-2148,-772,16040,-119,160,-134
510291523,-2576,-2088,15268,-75,254,-145
510293244,-4132,-84,15808,-105,109,-819
510294968,-3576,1236,15836,-247,29,-666
510296679,-2148,324,16288,-414,378,189
510298389,-3324,-3624,15588,-236,100,-85
510300101,-2644,-3744,15204,-38,69,-839
510301834,-2284,288,15612,172,454,-964
510303543,-2592,20,16956,-33,376,187
510305253,-4360,-1664,17120,-48,22,-391
510307032,-4084,-468,16932,-17,-108,-805
510308824,-2432,2368,16080,-38,35,-356
510310572,-2012,-20,16592,-200,164,656
510312300,-2568,-3124,15676,-70,192,-272
510314019,-2500,-1892,15296,74,320,-773
510315786,-2384,756,14852,151,280,-110
510317571,-2692,424,16340,-147,432,257
510319375,-2812,-360,16792,-289,349,-48
510321144,-2288,-496,16824,-210,337,-101
510323037,-2968,-604,15120,-106,435,98
510324865,-4528,-1728,16300,-85,464,18
510326691,-4216,-1496,16196,18,296,-368
510328520,-3012,56,16820,-10,104,-334
510330356,-1720,400,16808,-159,253,47
510332167,-2912,-1432,16024,-202,376,284
510334037,-2832,-2200,15784,-148,410,3
510335850,-5096,-764,15560,-61,314,-335
510337652,-3004,-360,15668,78,206,80
510339450,-3192,-452,16304,-23,278,127
510341264,-2264,-116,16412,-175,362,-32
510343052,-2664,336,15908,-207,526,46
510344814,-3140,-184,16716,-196,584,479
510346536,-5088,-2396,16344,-73,291,370
510348228,-4876,-2120,16148,153,179,-273
510349902,-4276,-984,16044,188,87,-274
510351577,-2764,36,16828,76,180,261
510353254,-2724,-1192,16784,-62,107,362
510354932,-2552,-1068,15688,-86,325,20
510356604,-4220,44,15568,-156,359,87
510358257,-3684,-1044,16196,-151,329,291
510359916,-5144,-1648,16008,-130,381,285
510361583,-4632,-2008,15428,29,90,-241
510363244,-3436,-96,15748,-30,198,-301
510364939,-3172,104,15908,-76,224,2
510366624,-2896,-764,17304,-94,643,69
510368283,-5140,-172,16276,-167,176,-194
510369990,-4464,84,16268,-181,145,-131
510371755,-4864,64,16276,-213,126,194
510373511,-4400,-888,16684,-124,-37,31
510375257,-3636,-616,16200,-82,-249,-168
510377012,-2800,-260,15956,-172,-175,-83
510378798,-2464,-1076,15428,-56,238,146
510380544,-3140,-532,16120,-90,155,-92
510382295,-3568,-672,15680,-271,185,204
510384093,-3620,-1376,14972,-215,226,-59
510385912,-3088,-1252,15060,-100,286,-197
510387674,-3256,-1408,16132,-84,332,-49
510389435,-2936,-1800,15732,-117,405,-419
510391151,-3460,-220,16128,-87,440,-483
510392865,-3208,60,16664,-140,291,-343
510394599,-3560,-332,17100,-246,387,-167
510396338,-4388,-1104,17040,-281,140,-248
510398057,-3604,-1048,16980,-247,11,-463
510399766,-2456,116,16776,-133,27,-478
510401498,-2384,-868,16544,-202,162,63
510403255,-2600,-1684,15576,-20,209,-583
510404995,-2412,-292,15596,5,187,-812
510406758,-1316,1664,15944,-169,355,11
510408520,-2348,-340,15520,-230,482,492
510410341,-3128,-1208,15056,-151,339,-29
510412133,-1968,264,14656,-95,512,-19
510413886,-1960,176,15552,-127,765,260
510415632,-3008,-2008,16304,-56,742,517
510417360,-4300,-2080,16016,55,541,-270
510419029,-3688,-824,16500,73,507,-405
510420703,-2932,652,17080,-106,645,280
510422374,-3816,-2040,17364,-241,365,525
510424640,-3372,-1952,16600,-48,408,-490
510426324,-3272,-476,16196,14,442,80
510428108,-4060,-1088,16848,-49,309,-81
510429816,-4028,-760,16612,-66,142,-173
510431528,-2552,-552,15856,-159,338,68
510433232,-2676,-1268,15340,-49,401,-65
510434931,-2368,-996,15468,22,412,-172
510436629,-2620,-576,15156,-12,640,-7
510438393,-4288,-620,15376,-17,656,-164
510440127,-3256,644,14700,-57,337,-212
510441852,-2436,812,15172,-164,563,24
510443567,-3644,-1028,16536,-228,804,393
510445279,-4036,-2640,15176,16,690,-3
510447000,-4288,-2244,16004,70,784,-308
510448800,-5100,-212,17152,62,696,-287
510450508,-5692,112,17748,-66,435,312
510452207,-5228,-1320,16576,-138,42,-39
510453903,-3956,-956,16440,-96,143,-300
510455596,-4304,100,16900,-29,349,22
510457291,-4552,-1312,17116,-62,123,310
510459044,-6752,-2264,15256,-28,-388,-31
510460780,-4792,-1720,14520,57,-328,-378
510462517,-3100,868,16232,60,160,-117
510464237,-2144,-1540,16108,-87,-95,582
510465950,-2200,-2584,15384,-67,282,-4
510467663,-3788,36,15124,85,496,-596
510469403,-4224,224,15492,-82,455,402
510471101,-5016,-2412,16568,-93,263,84
510472797,-4596,-2068,17120,-9,225,-506
510474511,-3940,476,15868,-2,-63,-248
510476199,-3080,-520,16056,-64,312,239
510477855,-4644,-1048,17076,-96,386,-5
510479585,-4336,-1688,17912,-26,148,-103
510481260,-6024,-1560,16724,121,-233,-281
510482935,-5092,-668,16236,132,-327,-549
510484618,-3792,376,17412,0,-117,-54
510486300,-2924,-1252,17392,-108,-300,72
510487978,-2672,-1400,15796,-15,-223,-324
510489682,-2724,-708,15308,36,-30,-445
510491408,-2700,512,15644,-6,40,1
510493109,-3556,-1448,15712,-152,-20,263
510494832,-4000,-2012,15304,-79,-46,-100
510496555,-3008,48,15496,141,-57,-586
510498271,-2336,1052,15528,-83,-35,232
510499991,-2176,-1252,16392,-253,211,198
510501808,-2696,-1440,16332,-149,335,-157
510503510,-2332,-572,15992,101,358,-202
510505236,-4360,-256,16988,-50,287,168
510506947,-4820,-608,16420,-129,125,226
510508643,-4644,-1604,16936,8,47,92
510510362,-3800,-1116,17572,143,-280,-228
510512085,-1964,688,17132,10,-280,-181
510513846,-1440,568,16420,-64,-55,295
510515593,-2372,-2128,15180,-100,170,444
510517315,-4120,-1712,16152,113,136,-638
510519079,-2756,884,15580,146,-146,-25
510520820,-2312,456,14940,-21,28,361
510522541,-3384,-1012,15564,-172,82,96
510524252,-1756,-1196,15732,-48,149,-165
510525935,-2328,-792,14932,53,355,-135
510527601,-2464,-460,15512,74,520,77
510529265,-4308,-1488,16360,-26,447,92
510530928,-4716,-1388,16256,7,400,-198
510532669,-4208,464,16524,95,202,-212
510534345,-3372,-124,17364,-94,116,304
510536032,-4140,-2024,17688,-47,261,114
510537695,-5116,-1884,16832,50,144,-194
510539359,-4804,-848,16904,188,-81,-164
510541016,-5012,-112,16696,102,-513,-126
510542714,-3592,432,16056,-32,-433,-140
510544408,-3332,-16,16144,-184,-148,269
510546118,-2684,-2308,15276,-31,-262,63
510547827,-2596,-2192,15048,131,-75,-330
510549536,-3720,-120,14112,140,83,-263
510551242,-3348,-532,15384,-27,316,99
510552954,-5024,-312,16892,-118,131,-107
510554671,-4832,8,16100,-115,-47,-69
510556390,-3516,-248,15768,-106,114,30
510558101,-3948,-1000,17144,-137,196,245
510559818,-4504,-1900,16896,-110,192,265
510561534,-5880,-3044,16992,232,27,-201
510563317,-5684,144,17140,283,-454,-693
510565013,-4160,1732,17172,-137,-441,238
510566702,-4408,452,16992,-226,-412,585
510568385,-3504,-2664,17088,-32,-673,26
510570068,-3160,-1256,15100,181,-628,-626
510571748,-2924,196,14264,124,-474,-465
510573483,-2504,-304,15476,-88,3,281
510575232,-3120,-1280,16140,-47,-294,-338
510576927,-1616,1464,15116,-98,-163,-519
510578588,-1420,1696,15112,-235,156,138
510580241,-3052,-1500,15712,-297,231,503
510581892,-3980,-2380,16176,-8,-22,-519
510583603,-3604,-1180,16456,91,12,-690
510585295,-3464,1404,16984,-43,3,-158
510586998,-3684,-628,16864,-190,-265,485
510588693,-3632,-1744,16676,-161,-248,106
510590388,-3220,-472,17228,-23,-126,-526
510592201,-2500,648,16544,-104,-296,270
510594048,-3068,-1316,16252,-236,-145,241
510596499,-3428,-1120,16192,-97,-175,-302
510598217,-2584,112,15992,-146,-300,-157
510599959,-824,220,15072,-316,-191,106
510601717,-600,-524,15096,-360,223,165
510603398,-2024,-1608,15764,-183,386,-87
510605076,-3252,132,14764,-191,126,-286
510606758,-2500,-136,15560,-230,178,239
510608442,-3208,-1752,16248,-270,457,282
510610132,-3540,-1392,16892,-116,207,-125
510611847,-4244,-872,16388,-111,25,140
510613587,-3308,-772,16176,-162,54,15
510615359,-1900,-1260,16132,-100,421,308
510617104,-4264,-2732,16720,20,314,168
510618802,-4564,-2848,17588,125,167,-226
510620475,-5620,-196,15904,263,-281,-299
510622146,-3496,-408,15484,21,-285,183
510623817,-2648,-932,16740,-42,-117,45
510625568,-2644,-908,16984,-49,-135,-100
510627260,-2412,-1584,14788,76,40,-190
510628965,-3140,-88,15236,109,317,-398
510630673,-3684,56,15244,19,270,-101
510632369,-3708,-1036,15348,58,289,-202
510634064,-3084,1852,16308,-22,200,-544
510635821,-3200,-380,16000,-246,222,859
510637528,-3916,-2480,15848,-131,348,423
510639240,-4192,-120,16284,69,338,-812
510640952,-5784,976,17612,-160,-45,452
510642661,-5848,-304,16836,-210,-295,504
510644379,-3280,-552,16444,-101,-79,-378
510646197,-3264,312,17028,-192,-115,344
510647942,-3768,-3764,16240,-90,9,440
510649667,-5420,-3940,15472,175,-88,-235
510651374,-3448,36,15176,288,-435,-770
510653072,-3076,1596,16956,-259,-33,480
510654775,-3844,-244,16608,-398,-169,904
510656482,-3076,-3872,14720,-30,-314,-216
510658191,-952,364,15044,134,180,-841
510659914,-2056,-352,15872,-197,643,789
510661646,-4008,-2920,15944,-116,574,644
510663423,-5300,-2436,16152,225,-57,-987
510665199,-3188,2224,15532,28,88,-432
510666929,-3252,-96,16528,-241,96,696
510668607,-2936,-2216,17072,-180,82,397
510670266,-4152,-1296,17152,75,69,-872
510671924,-4008,812,15828,86,-34,119
510673580,-4468,-164,15636,17,73,449
510675273,-4788,-1104,17164,36,-219,-347
510677026,-2964,1176,16792,-93,-306,-359
510678698,-2864,1452,16208,-175,-254,72
510680366,-1780,-452,15588,-172,-81,441
510682031,-3480,-1596,14884,-168,100,-92
510683694,-3152,-1288,14944,-113,111,-249
510685408,-4004,124,16148,-30,252,-251
510687177,-3420,604,15792,-222,-113,15
510688874,-2676,-728,15872,-343,226,238
510690572,-3640,-1252,15588,-311,314,43
510692266,-2828,-1012,16060,-186,181,-155
510693959,-3168,-948,16224,-201,194,106
510695649,-3264,-1156,16156,-205,277,0
510697401,-4792,-844,16368,-162,278,60
510699104,-4604,-652,16104,-263,-119,-176
510700812,-2812,-176,16600,-312,21,17
510702520,-2640,-816,16564,-244,97,242
510704231,-4212,-2796,15856,-90,8,110
510705944,-3832,-2192,14900,225,-95,-546
510707682,-3652,-240,15608,195,-12,-723
510709393,-2196,492,17044,-54,-26,446
510711109,-2916,-2036,16412,-76,-163,196
510712831,-1980,-320,14900,-95,41,-526
510714570,-1344,788,14980,-121,322,-231
510716373,-2240,-892,15620,-237,365,567
510718167,-2884,-3640,16004,-6,485,-278
510719861,-4032,-416,15980,212,369,-788
510721509,-3660,988,15832,95,294,-429
510723155,-2704,0,16536,-180,131,315
510724805,-2452,-1096,17388,-205,400,-291
510726456,-2636,-460,17388,-98,460,-321
510728110,-3796,-884,15648,-91,304,258
510729801,-6076,-2788,16128,126,143,-252
510731511,-5584,-1484,16316,242,-47,-818
510733221,-2196,2176,16956,25,35,-270
510734930,-3268,-648,16676,-227,-34,692
510736639,-3120,-2424,16284,-131,-63,174
510738378,-2128,-276,15756,107,369,-785
510740092,-4156,1240,16036,-187,309,381
510741798,-4560,-2392,15052,-219,53,253
510743506,-3768,-2076,15892,-103,230,-619
510745216,-1980,1852,16224,-109,155,-364
510746924,-2488,-1648,15796,-339,511,843
510748657,-3868,-4024,15768,-196,581,390
510750372,-5008,-2076,16360,146,429,-941
510752090,-4356,724,16620,90,81,-41
510753798,-4924,-500,17556,-55,-9,291
510755514,-4700,-1136,17304,-102,-202,111
510757225,-2040,-1404,15648,-75,-155,-117
510758958,-2596,-880,16248,49,175,-190
510760679,-3592,-852,15972,7,364,168
510762394,-5356,-1968,15828,17,181,382
510764165,-4632,-1856,15244,123,-130,-759
510765929,-2876,2344,16648,41,-5,-416
510768877,-152,-1856,15820,-184,317,461
510770678,-4640,-1648,15468,-88,489,-477
510772345,-3956,-364,15028,5,247,-476
510773996,-4396,624,16464,-1,629,122
510775670,-4660,-428,17432,-130,50,73
510777339,-4048,-48,17456,-194,-76,-236
510778985,-2856,156,15372,-271,-39,332
510780686,-2900,-1084,16912,-87,385,89
510782353,-3780,-1104,16568,-47,209,66
510784052,-4268,-1372,16692,-150,221,1
510785723,-5540,-636,16164,-119,-236,-143
510787397,-4020,44,15104,-123,-315,-156
510789079,-3196,20,16744,-287,144,362
510790813,-2872,-3032,16204,-215,-70,185
510792515,-2400,-2596,15148,-92,31,-447
510794231,-2556,288,15332,-76,291,-377
510795942,-3244,-612,16448,-201,431,353
510797653,-5248,-1280,16160,-188,-40,-338
510799364,-4228,-420,15340,-223,-215,-515
510801099,-2064,796,15644,-376,0,-38
510802811,-1852,-2052,16240,-276,337,332
510804519,-2360,-3320,15612,-107,317,43
510806229,-2996,-1360,14820,63,437,-750
510807937,-3160,204,15732,-69,521,58
510809648,-3532,-1268,17052,-30,570,140
510811389,-4224,-1280,16900,-41,376,-156
510813117,-4284,180,16260,-154,149,-366
510814860,-2552,-412,15444,-229,267,229
510816658,-2040,-3180,16916,69,562,-196
510818440,-3764,-2504,16800,156,485,-714
510820214,-3024,-460,16440,44,292,-437
510822055,-4540,-24,16284,-28,114,-207
510823731,-2132,704,16296,-24,-8,-417
510825387,-1652,672,17012,-102,257,-158
510827040,-1920,-740,16012,-221,419,69
510828692,-3364,-884,14692,-155,435,-251
510830346,-3280,-940,14564,-40,459,-171
510832067,-3560,-400,16176,22,595,-289
510833760,-3016,908,16888,-90,528,-178
510835470,-3072,656,17308,-267,338,126
510837182,-2976,-1504,15252,-248,356,266
510838891,-3696,-1092,15888,34,613,-280
510840596,-4624,-932,17012,-50,347,173
510842327,-5072,-1624,17504,-121,139,105
510844163,-3532,-980,16036,-60,141,-350
510845978,-3496,-408,16296,-78,311,119
510847797,-2968,-2704,16920,-86,284,21
510849555,-3324,-2240,16784,-93,368,-530
510851289,-3148,440,15664,-16,358,-301
510853106,-4068,-1180,15216,-25,286,437
510854804,-4072,-1464,16232,35,216,-478
510856493,-3316,-60,16328,-5,200,-535
510858277,-2396,-108,15448,-65,268,388
510860176,-3148,-1636,15060,36,403,-62
510861937,-3196,-120,16072,13,627,-310
510863684,-3948,236,16088,-131,543,262
510865431,-4304,4,16156,-201,485,227
510867132,-4684,-616,15624,-88,463,110
510868801,-3584,-1280,16956,-1,563,96
510870465,-4080,-1148,17204,-46,498,-41
510872128,-4252,-416,16772,-80,243,11
510873856,-5200,-512,16516,-108,186,124
510875562,-4720,-696,16812,-110,-75,-56
510877284,-4104,-800,16972,-99,-155,-50
510879012,-3280,-128,16148,-150,-56,-192
510880737,-3108,252,15744,-137,162,115
510882450,-3168,-408,16152,-211,112,257
510884252,-3272,-1724,15656,-224,84,-6
510885961,-2884,-460,15076,-184,373,-242
510887657,-3084,-228,15504,-214,375,270
510889360,-3460,-1292,15524,-194,283,358
510891057,-3296,-2132,16012,-57,431,-243
510892751,-3332,76,15880,-30,416,-275
510894453,-3540,-20,16040,-80,314,168
510896153,-3820,-1720,17392,-132,223,64
510897846,-3716,-676,17056,-159,148,-428
510899545,-2992,196,16600,-282,97,13
510901255,-3060,-244,16552,-394,166,60
510902957,-2912,-2080,16652,-270,332,-12
510904663,-2852,-2064,16220,20,282,-421
510906379,-3280,-1192,16360,-3,244,-555
510908100,-3012,-80,15868,-104,205,-99
510909849,-3108,-1052,15844,-87,252,180
510911597,-2256,-1476,16060,-13,111,-344
510913317,-2016,-772,16084,13,224,-369
510915054,-2576,-624,15052,-51,451,138
510916757,-2828,-1716,15728,84,591,-204
510918495,-3100,-216,16472,129,364,-317
510920237,-2748,-92,16584,30,506,-4
510921951,-5012,-1844,15872,16,444,227
510923643,-4080,-1576,16532,103,364,-617
510925333,-3692,-280,16860,150,317,-601
510927008,-3096,-368,17192,14,472,240
510928679,-3888,-2120,16712,55,375,-4
510930345,-4364,-2248,16440,120,280,-239
510932033,-4776,-1760,15156,395,78,-440
510933700,-4188,912,16464,447,132,-507
510935418,-3696,1632,16988,213,-80,-77
510937118,-3056,-732,16132,-52,-127,614
510938829,-3184,-1752,14828,316,158,-335
510941408,-3204,1128,15840,266,398,-141
510943127,-4428,-1012,16524,-48,238,610
510944839,-3976,-1564,16036,129,265,-416
510946613,-3236,1352,16032,168,317,-117
510948313,-3508,508,16760,34,264,609
510950010,-4332,-3312,16064,-48,211,368
510951703,-5276,-1968,17084,266,344,-584
510953395,-6540,-144,16720,317,-32,-411
510955088,-5012,408,16664,44,-319,389
510956836,-4480,-1884,17308,-72,-242,262
510958542,-2508,-1596,15652,205,-97,-314
510960258,-2640,-580,15052,270,192,-331
510961972,-4000,236,17008,146,498,239
510963767,-6608,-980,16476,-2,-256,428
510965545,-4444,-1248,15488,174,-139,-230
510967402,-4700,120,16432,251,-90,-415
510969111,-2208,1028,16280,16,-389,351
510970788,-4400,-1844,16064,-144,-53,407
510972460,-4656,-2448,15652,-7,-226,-95
510974132,-5644,-364,16452,218,-32,-544
510975804,-4344,672,16620,10,-491,94
510977523,-3492,-848,17868,-272,-367,215
510979224,-4244,-1692,16684,-194,-516,121
510980933,-1420,-2088,15148,188,-93,-565
510982642,-4496,1340,15744,29,52,-500
510984367,-4040,1360,16460,-140,-356,18
510986091,-4544,-1452,16140,-164,-295,183
510987831,-3688,-636,15832,142,-474,-793
510989551,-2384,2448,16484,30,-595,-256
510991258,-2012,2236,16524,-242,-575,309
510992966,-924,-1876,16364,-312,-233,659
510994683,-2300,-1704,15340,81,-19,-555
510996408,-2452,244,15376,96,15,-593
510998151,-3092,700,16204,-309,229,626
510999864,-3952,-2644,14964,-295,-180,275
511001573,-2112,-1620,15536,26,61,-668
511003281,-2204,64,15564,11,234,-544
511005014,-1808,692,15676,-325,328,389
511006757,-2620,-3092,16028,-295,253,406
511008482,-4660,-2924,17316,31,565,-574
511010188,-5604,-1676,17180,154,236,-507
511011894,-4636,-556,16676,103,-186,-167
511013584,-4156,-1128,17608,-65,-219,145
511015265,-3360,-1960,16868,4,-297,74
511016966,-2416,-1376,16048,203,-77,-641
511018681,-2456,-1096,15880,109,24,19
511020422,-4072,-1672,16260,254,93,-456
511022184,-4696,0,15976,252,-255,-772
511023907,-1964,1252,15272,-36,-183,69
511025594,-3296,-1148,15996,-124,103,140
511027276,-3376,-1420,16168,31,-75,-409
511029034,-1536,100,16292,78,1,-431
511030721,-2704,-492,15572,-55,316,-84
511032411,-4456,-760,16620,-69,250,-211
511034100,-4116,-1672,16620,-10,2,7
511035785,-3488,-1600,16208,204,95,-738
511037475,-2900,984,16788,208,191,-455
511039214,-2968,660,16684,27,149,54
511040916,-4340,-2332,16104,12,8,-31
511042625,-4176,-232,14992,286,-195,-1020
511044400,-3180,2132,15816,-17,30,-10
511046128,-3036,616,16216,-246,-25,444
511047849,-3388,-1484,15892,-177,143,-381
511049646,-3184,1064,16352,-58,281,-624
511051359,-2508,1860,16348,-174,329,-112
511053059,-4516,-944,15944,-405,235,788
511054757,-5064,-4320,15528,-4,137,-171
511056460,-4824,-604,16224,359,-43,-889
511058156,-3740,1332,16240,194,-239,-377
511059865,-3660,-4,16724,-264,-43,735
511061658,-4548,-3292,16148,-97,-194,77
511063417,-4680,-2052,15360,278,-150,-651
511065192,-4480,-864,15904,280,-238,-513
511066947,-3648,-1000,16256,5,-75,85
511068672,-4128,-2248,16068,62,-71,-218
511070472,-3064,-404,15408,180,-188,-689
511072167,-2328,572,15372,87,85,-502
511073846,-4032,44,16208,-108,355,138
511075524,-5524,-1504,16000,0,-113,-285
511077202,-5116,-1000,16628,144,-214,-643
511078873,-3976,2712,16808,39,-260,-497
511080548,-3016,1472,16660,-267,-316,780
511082250,-3520,-940,16648,-271,-339,776
511083959,-3252,-1476,16184,-12,-216,-566
511085701,-3708,1876,15800,-16,-258,-63
511087415,-3060,-812,15276,-300,-386,875
511089123,-3064,-2636,15604,-316,-160,494
511090833,-3488,-2876,15988,-72,-5,-398
511092543,-2696,-588,14388,87,-100,-536
511094280,-1964,360,15328,-46,95,-358
511096041,-2912,-1192,16772,-376,292,339
511097764,-3916,-2840,15352,-55,84,-556
511099485,-3508,-28,16564,54,118,-584
511101225,-4376,448,16968,-81,-27,-177
511102937,-3696,-1056,16228,-103,-226,-106
511104645,-2196,-324,17044,-60,-51,-559
511106355,-2416,924,16848,-159,-71,-140
511108098,-2528,468,16032,-172,-66,190
511109930,-3212,-1528,15236,-79,-9,273
511111983,-2756,-2068,16184,40,-121,-220
511114834,-2740,456,16156,82,45,-106
511116639,-2200,-708,15472,-107,-276,363
511118365,-1488,-1916,15136,-135,200,-298
511120061,-1264,-1544,15484,-76,485,-477
511121792,-2424,-576,16276,-27,633,-150
511123547,-3748,-1800,16660,-12,327,-145
511125250,-4144,-1412,16524,13,262,-496
511126917,-3412,568,16404,-22,257,-432
511128578,-2904,68,17104,-103,196,70
511130237,-3440,-152,16936,-95,95,-104
511131903,-2752,-168,16704,-120,47,-116
511133610,-2956,-864,16420,-45,255,159
511135329,-4020,-504,16260,4,-64,-162
511137037,-3080,-248,16500,8,-126,-67
511138765,-2196,-128,16528,-100,152,269
511140477,-2532,-1996,15436,-108,169,312
511142252,-2940,-2424,14864,2,277,-14
511143970,-4300,-256,15236,35,356,-442
511145723,-3236,4,15748,-113,260,249
511147433,-3808,-1776,16444,-227,385,87
511149152,-4204,-1552,16024,-195,387,-381
511150874,-3532,4,16004,7,561,-256
511152610,-4660,-1520,16912,-91,381,412
511154322,-5696,-2532,16464,-12,159,-369
511156059,-5608,-1280,15744,133,113,-510
511157771,-5536,1096,16844,69,-22,-69
511159480,-4056,-28,16344,-116,-340,466
511161200,-3420,-1316,16976,-129,-119,366
511163049,-3692,-968,15824,64,-102,-365
511164807,-3892,484,15644,32,170,124
511166539,-5800,-2020,15596,-71,-342,575
511168246,-4304,-2576,15208,-56,-228,-91
511169948,-3736,108,15696,35,6,-555
511171635,-1900,256,15740,-144,-88,290
511173391,-3476,-2948,15796,-195,515,175
511175082,-4864,-2964,16216,-47,354,-490
511176775,-3852,356,16552,70,101,-670
511178467,-4736,392,16472,-118,14,112
511180160,-3984,-560,17284,-104,-77,113
511181852,-3372,-332,17196,-149,-298,-308
511183601,-2300,48,15936,-166,-123,-86
511185307,-3528,-1008,15904,-63,62,171
511187016,-3672,-1436,16416,-5,-131,-33
511188726,-3040,-544,16112,-21,-249,-406
511190435,-2984,428,15896,-167,-86,10
511192142,-2480,12,15740,-206,-98,193
511193874,-2320,-1876,16008,-140,-79,91
511195585,-1208,-1360,15692,-104,77,-401
511197294,-2156,-632,15464,-140,487,-54
511199003,-2640,-1360,15568,-70,377,72
511200712,-2580,-844,16356,-37,284,-557
511202420,-3392,620,16188,-238,391,-149
511204166,-3456,228,16068,-246,320,62
511205893,-2576,-700,16256,-203,286,-161
511207613,-2520,-484,17224,-190,388,-215
511209323,-2784,-1236,16712,-70,327,112
511211052,-3356,-1780,16580,-7,356,-13
511212776,-4060,-1196,16472,106,-3,-323
511214498,-3080,228,16728,56,61,-313
511216191,-2648,664,17088,39,27,-77
511217880,-2016,520,16884,-196,-80,112
511219575,-1244,-380,15092,-303,152,180
511221252,-2212,-1876,15036,-91,477,87
511222989,-2284,-2236,15572,12,454,-68
511224723,-3660,-1404,15960,-40,330,-347
511226434,-2668,-944,15300,-68,364,-143
511228117,-2912,-248,15512,-68,467,-400
511229775,-2080,760,16272,-236,382,-3
511231429,-2352,-1912,16432,-307,660,207
511233091,-3348,-2244,15860,-183,838,-233
511234781,-4748,-1024,16124,43,648,-302
511236516,-5076,-712,15948,-9,320,-70
511238242,-3676,52,17072,-67,568,-210
511239986,-4112,312,16816,-47,497,84
511241830,-4252,-1428,16204,12,301,299
511243629,-4748,-92,16292,67,258,-332
511245409,-5588,1068,16656,-150,238,510
511247166,-6052,-96,15604,-258,-43,801
511248887,-4184,-1732,15896,-158,-1,-119
511250594,-3260,-380,16324,-120,62,110
511252288,-3540,-3552,15456,-128,336,417
511254026,-5124,-4124,14068,23,293,-138
511256216,-3840,332,16556,92,554,-576
511258084,-4152,644,17040,-24,420,18
511259932,-5224,-1192,15664,-182,-11,-8
511261786,-3408,-976,14516,-71,138,-656
511263613,-3016,336,17156,19,506,-219
511265525,-3132,-636,17520,-72,304,10
511267389,-6428,-1324,16180,30,14,-123
511269125,-5776,-876,15472,152,-165,-359
511270779,-2532,2116,17088,63,-59,-249
511272416,-2812,696,17420,-234,-255,648
511274051,-1968,-884,16148,-224,-171,548
511275686,-3112,-1080,14368,-90,289,-67
511277321,-4016,-1532,15196,-73,62,275
511278996,-3704,-2340,15996,-79,88,206
511280692,-3580,-1440,15936,-45,218,-608
511282387,-3208,408,15944,-185,-26,-213
511284082,-2568,-496,15364,-255,-120,88
511285772,-2184,-1952,15376,-254,671,-454
511288407,-2684,-1260,16464,-152,588,-370
511290267,-5516,-932,16920,-59,157,-590
511292164,-2684,604,16312,5,292,-582
511293970,-3092,916,17156,-83,405,-265
511295757,-2896,-796,16788,-159,-138,77
511297634,-1936,-112,15400,37,182,-629
511299375,-1416,1476,16696,-19,606,-40
511301097,-2772,1260,16728,-270,608,300
511302817,-4972,-1040,15396,-385,115,301
511304515,-2476,-724,16000,-214,423,-377
511306214,-2656,-372,17232,-263,381,280
511307926,-2916,-1948,16020,-286,149,482
511309613,-2292,-3472,14716,-8,617,-506
511311329,-2964,312,16520,64,546,-586
511313108,-3076,-632,16816,-242,509,478
511314843,-4152,-2280,17272,-234,499,273
511316545,-4532,-796,16032,-81,168,-771
511318286,-2196,2088,15832,-212,308,-43
511320033,-1780,888,16340,-286,489,657
511321733,-3496,-3340,15752,-176,561,275
511323442,-3412,-1240,14932,216,523,-588
511325184,-3052,1672,16652,42,555,363
511326909,-3364,1192,16208,-152,607,858
511328646,-4772,-1572,16496,-245,509,654
511330350,-3608,-1764,15696,-35,285,63
511332065,-3524,-1280,15276,6,465,175
511333753,-4984,-2468,16860,69,436,437
511335443,-4724,-1660,15468,89,53,-299
511337145,-3748,-32,16108,-61,268,26
511338855,-3384,-636,16980,-144,309,275
511340533,-2556,-2536,16084,-26,518,253
511342217,-4728,-2088,15120,83,511,-452
511343899,-3876,-888,15748,119,483,-548
511345583,-4856,292,16900,36,605,245
511347262,-4680,-2060,16440,67,106,84
511348969,-4356,-1456,16416,174,101,-483
511350654,-3536,1576,16640,124,49,-52
511352343,-3428,260,17228,-6,201,548
511354024,-4028,-516,17668,-38,109,376
511355691,-4364,-748,16164,-24,-71,172
511357371,-4496,-1224,15208,115,3,427
511359084,-4112,-3216,16628,262,-36,352
511360791,-3840,-3204,16920,309,-95,-124
511362499,-3420,-776,15412,283,63,-451
511364217,-2900,496,15308,64,300,184
511365970,-3660,-696,15384,-64,316,465
511367728,-4312,-3384,15936,68,265,-258
511369484,-4624,-164,16104,274,249,-811
511371181,-4408,676,16044,74,-102,185
511372912,-3804,-896,16268,58,-104,446
511374613,-3644,-2008,17160,222,148,-361
511376304,-3332,1244,16840,326,-23,-518
511377982,-3324,2116,17188,203,-58,131
511379727,-4160,-604,17032,2,-88,836
511381429,-4164,-1708,16644,281,-155,-189
511383108,-3708,488,16176,229,-177,90
511384794,-3656,200,16460,100,-217,400
511386485,-3672,-2408,15992,186,-306,450
511388157,-2480,-2556,15452,375,-224,-424
511389908,-2540,-752,14952,306,-67,-668
511391658,-3052,936,15956,29,113,114
511393388,-3140,-1604,16060,10,-11,299
511395085,-3556,-1660,15728,117,-58,-688
511396741,-3196,52,15684,169,43,-783
511398375,-2844,1652,16560,16,242,43
511400078,-3336,-760,16696,-76,-76,261
511401756,-2912,-1232,16956,20,-8,-116
511403439,-3400,1420,16448,62,124,-441
511405124,-3480,2528,17024,-189,25,447
511406812,-3472,1088,17380,-321,-183,829
511408498,-4052,-2512,16092,-206,-155,452
511410217,-3948,-1800,14620,147,-210,-244
511411970,-3224,-492,15604,40,-132,194
511413860,-3064,-980,16120,-84,-121,391
511415724,-2820,-2724,15784,-51,129,237
511417512,-2924,-1992,15544,119,170,-352
511419317,-3472,456,15752,-29,317,-249
511421141,-3888,-1076,15776,-187,232,422
511422893,-3784,-2492,16152,-116,232,178
511424644,-4696,-1976,15828,193,69,-632
511426408,-4204,712,16616,171,102,-335
511428150,-3972,-336,17260,-20,-160,477
511429888,-3888,-1392,17204,-13,-192,279
511431628,-3768,-1104,16816,223,-208,-290
511433394,-3624,944,16116,176,-110,-73
511435149,-3304,-308,15944,-87,-221,622
511436897,-3588,-1976,16272,-95,-159,520
511438629,-3492,-2292,15472,211,-108,-465
511440376,-3300,1092,15212,175,-93,-387
511442299,-3504,-612,15596,-178,-123,672
511444085,-3920,-3452,15332,49,22,-334
511445837,-3928,-2032,15424,255,69,-972
511447567,-3520,2184,16336,118,-10,-423
511449248,-3876,-32,16384,-268,-71,621
511450969,-4072,-1848,16504,-200,-42,287
511452642,-3288,-764,15892,64,30,-725
511454321,-4160,1216,16644,-20,139,17
511455993,-4436,-1564,16708,-35,-79,538
511457693,-5240,-2620,16324,69,-198,69
511459364,-4220,-644,15676,243,-390,-540
511461965,-3828,-704,16424,22,-338,378
511463710,-3440,-1228,16416,-27,-390,80
511465447,-2828,-1660,15620,-24,-329,-65
511467206,-3076,-1284,15396,37,106,-309
511468986,-5016,-1124,15568,140,-188,-172
511470725,-4040,-1468,15928,125,-366,-264
511472441,-3408,-844,15900,44,-162,-399
511474128,-2904,-284,15724,75,-64,-383
511475790,-2140,0,15992,48,10,-362
511477451,-3564,132,16448,-80,42,-115
511479108,-3900,-216,16656,-93,-84,-167
511480770,-4232,-480,16320,-19,-85,-59
511482478,-4712,-792,16804,76,-255,-261
511484182,-3784,792,16908,58,-493,-299
511485912,-3256,1180,17256,-61,-486,-47
511487630,-1600,-72,16328,-50,-460,271
511489342,-3180,-104,16080,-124,-123,-5
511491065,-3216,-76,15240,-138,-252,99
511492850,-3280,-84,15644,-147,-170,119
511494554,-3096,-832,15404,-222,-337,235
511496258,-2288,-1364,15084,-179,6,72
511497958,-2808,-1152,15340,12,-50,-87
511499653,-1836,-596,15820,-25,-52,-205
511501356,-2316,-596,16048,-220,188,352
511503077,-3260,-1688,16068,-165,333,-72
511504791,-3668,-1172,16972,-56,313,-257
511506626,-4084,4,16532,-158,-194,-90
511508569,-2760,-600,15892,-280,-26,188
511510354,-3408,-1592,16644,-119,147,-90
511512230,-3720,-1628,16368,40,-97,-190
511514116,-3588,-648,15936,23,-229,-220
511515837,-2832,-416,16228,-12,-103,-30
511517514,-3144,-1264,16568,-50,-39,284
511519201,-3652,-888,15300,24,-374,-445
511520879,-2224,184,15784,-14,-270,-495
511522541,-1624,-424,14996,-266,171,569
511524309,-3124,-4188,14924,13,340,-172
511526018,-4080,-1844,15024,289,205,-955
511527724,-3600,-24,15428,181,223,-788
511529416,-3460,188,16108,-65,203,54
511531099,-2928,-1328,16288,-39,161,-298
511532783,-2736,-964,17204,3,363,-617
511534470,-3692,432,17048,56,206,-295
511536172,-4824,-1120,16284,-51,22,216
511537879,-5772,-2144,16324,78,-140,-21
511539584,-3844,292,16532,256,-76,-988
511541302,-3216,3344,17024,-51,-267,145
511543025,-2584,-1208,16588,-260,-280,941
511544740,-2792,-2772,15724,-133,-17,289
511546450,-3708,12,15252,123,200,-535
511548162,-4420,92,14652,-85,-113,704
511549874,-4028,-1880,15856,-258,88,-7
511551584,-3148,-1620,15856,-190,36,-193
511553381,-2368,-1896,15280,-117,285,-38
511555198,-4476,-3428,14992,76,496,-180
511556942,-5216,-2496,16332,301,341,-849
511558627,-5080,-1176,16996,240,196,-879
511560326,-5480,284,17668,101,13,-435
511562022,-5104,32,16392,121,-419,-201
511563703,-3268,-84,16392,89,-400,-376
511565394,-3340,412,17292,30,-131,-320
511567082,-2416,244,15992,21,-116,-129
511568803,-3992,-148,16220,73,55,107
511570544,-5236,-536,15256,206,-741,-99
511572257,-2408,1260,15828,-21,-295,-133
511573934,-2544,516,16236,-127,-423,507
511575617,-1012,-620,15284,-61,-344,310
511577303,-2352,-420,14968,-116,213,28
511578985,-3236,-2344,15256,-151,65,584
511580669,-3896,-3540,15600,7,209,166
511582350,-4320,-584,16092,231,-86,-923
511584061,-2804,1328,16676,-179,-139,235
511585812,-2880,-256,16456,-360,-130,539
511587543,-2416,-1644,15952,-158,258,-354
511589319,-2164,-388,17148,-103,292,-209
511591205,-4920,-784,17296,-144,235,79
511593027,-4924,-1416,15960,-37,-313,-189
511594754,-3496,-712,15880,19,-222,-436
511596484,-3524,1604,17016,-56,-227,-166
511598181,-1500,100,16252,-140,-362,611
511599908,-2032,-2044,16164,-144,-39,228
511602774,-3384,352,15668,64,204,-139
511604653,-4496,1028,15512,-57,-3,197
511606484,-2868,-1212,15796,-309,-240,401
511608270,-2076,-1908,15196,-152,107,-244
511610008,-1492,-1192,14820,65,385,-252
511611735,-1848,-892,14596,35,502,-124
511613532,-2384,-1056,16676,-198,622,-117
511615343,-3424,-664,16148,-247,666,-151
511617170,-5212,-60,16464,-104,468,-235
511618858,-5064,444,17112,-282,20,3
511620533,-4396,-92,17168,-418,-49,101
511622184,-2560,-1568,15524,-64,21,-154
511623821,-2504,136,17280,87,347,-264
511625460,-3628,416,16900,-67,20,214
511627139,-3232,-2112,15808,-159,162,394
511628856,-4092,-1352,15232,91,-41,-205
511630558,-2948,-360,15100,106,-95,-260
511632245,-1956,212,16608,-140,187,347
511633931,-2608,-3204,16072,-183,279,429
511636338,-2940,-2488,14008,132,367,-739
511638107,-3828,776,15308,61,537,-434
511639804,-3420,-1376,16364,-187,511,461
511641505,-3880,-3012,16492,-198,444,53
511643206,-3920,-900,15924,51,239,-1055
511644915,-2892,424,15704,42,775,55
511646864,-5332,-2196,17148,23,436,-29
511648580,-4928,-2176,17652,98,198,-648
511650286,-4856,1716,17044,89,77,-673
511651987,-4512,1436,16372,-9,-63,463
511653705,-3836,-372,17252,-49,-103,580
511655408,-4124,-1852,17272,-73,-263,-197
511657121,-2564,708,15396,35,2,-478
511658904,-3396,140,15332,-81,176,681
511660630,-3716,-2188,15848,-143,147,699
511662355,-5168,-3540,15560,47,-95,-610
511664105,-2632,396,15396,214,86,-643
511665838,-3596,-220,16212,-60,120,485
511667548,-3352,-1656,16244,-106,37,249
511669306,-2520,-720,16640,-100,411,-635
511671021,-3172,556,16068,-141,272,-96
511672702,-3276,100,16300,-97,399,90
511674367,-6004,-1428,17416,-35,0,235
511676041,-3508,-1376,15928,95,-288,-585
511677715,-2816,580,16440,129,-132,-646
511679423,-2160,1708,16448,-95,-220,487
511681102,-2528,-1856,16544,-168,232,620
511682797,-4048,-1836,14872,-51,-149,-296
511684521,-2876,-852,15120,26,-66,-405
511686266,-3732,340,15432,-58,236,310
511687987,-3396,-2288,16364,-193,117,278
511689807,-2964,-1492,15248,-45,-66,-681
511691494,-2384,352,14600,-20,66,-734
511693177,-1580,536,15556,-128,526,443
511694857,-3676,-3248,16900,-206,513,93
511696535,-4624,-2628,16032,-79,263,-715
511698213,-4304,1916,16220,-14,244,-758
511699948,-3052,1192,17088,-227,228,713
511701648,-3920,-1344,17248,-292,157,771
511703356,-4028,-2384,16140,-25,-226,-760
511705063,-840,2844,16044,-7,291,-515
511706772,-2712,48,16300,-487,378,1161
511708481,-3512,-2968,16504,-485,340,680
511710199,-4340,-1980,15236,-64,206,-987
511712035,-2508,1496,15612,-170,246,-299
511713813,-3756,-2072,15536,-345,142,714
511715560,-3196,-4400,15636,-223,113,104
511717270,-2300,-1140,14760,149,333,-1375
511719118,-1632,2448,16272,-149,531,60
511720868,-2532,-1804,16948,-408,689,662
511722582,-3912,-2792,17092,-338,704,-154
511724278,-3324,680,15456,-94,219,-812
511725955,-2864,904,16548,-194,713,615
511727640,-4472,-1556,17020,-208,559,899
511729336,-4276,-3400,16976,73,47,-590
511731081,-2340,1564,15444,54,20,-379
511732742,-2436,-768,16500,-179,589,982
511734405,-3632,-2976,16584,-121,492,612
511736077,-2720,-2076,16796,-43,481,-741
511737731,-4164,-552,14892,-88,391,127
511739380,-3768,-1932,14884,-64,590,310
511741074,-5320,-2420,15928,131,374,-636
511742765,-2860,96,16864,-94,229,-749
511744484,-3352,628,15796,-203,384,-260
511746203,-3808,-1564,15584,-65,503,-45
511747923,-3936,-1508,16376,107,399,-653
511749636,-4300,-648,16704,95,432,-736
511751372,-4796,1252,16148,6,259,-441
511753088,-2904,1036,16020,-142,355,76
511754807,-3284,-524,17140,-76,289,-49
511756527,-2840,-488,17132,-15,362,-230
511758244,-3532,808,16004,-56,421,52
511760037,-4988,-488,15176,-98,191,482
511761786,-4516,-1060,15840,21,58,131
511763499,-3508,-828,16000,-41,188,107
511765199,-4084,-1332,15816,-88,100,420
511766898,-2732,-1904,15300,-50,204,-8
511768601,-2880,-1716,15972,-109,480,-68
511770301,-3872,-2696,16720,-75,503,-12
511772057,-5360,-1548,15968,30,195,-570
511773782,-3860,-132,16052,-86,315,-226
511775460,-3920,-560,16712,-118,344,46
511777109,-3324,-1836,17032,-91,-35,-326
511778757,-2584,-8,16212,44,284,-552
511780404,-3724,748,16132,26,394,-155
511782104,-4576,-696,17120,12,4,285
511783787,-4388,-460,16320,54,-301,-427
511785484,-3052,644,16252,64,-259,-312
511787177,-2440,1244,16428,-131,109,426
511788871,-2664,-1956,15532,-124,10,653
511790562,-2348,-3360,16148,-36,177,172
511792317,-3240,-1408,15732,140,480,-651
511794022,-4200,568,16368,33,345,48
511795738,-4308,-2180,15560,-102,16,310
511797448,-3784,-2356,16008,-86,134,-510
511799160,-2808,1704,16360,-75,250,-685
511800869,-2072,116,16252,-342,287,757
511802602,-3620,-3248,17512,-207,467,-187
511804313,-4132,-1732,16264,-39,375,-857
511806020,-3516,1540,16120,58,305,-136
511808947,-3628,120,17220,-253,-131,301
511810732,-2476,-48,16360,-241,104,204
511812553,-1804,-1128,15720,-61,204,381
511814329,-3232,-1432,15172,-56,281,343
511816075,-4172,-3216,14904,5,117,494
511817768,-2988,-2952,15544,152,307,-348
511819449,-2972,-1316,16236,195,337,-493
511821133,-2692,-48,16424,-69,309,277
511822912,-3552,-2648,15624,-217,388,77
511824623,-2760,-1232,14500,-35,494,-742
511826322,-1644,-916,15544,67,706,-406
511828054,-3724,-1532,17328,130,970,-88
511829751,-6040,-1568,16816,199,151,-304
511831455,-5016,-800,16300,211,69,-511
511833234,-4356,1792,16828,260,219,-332
511834919,-3060,2364,18716,121,35,319
511836594,-3264,-500,17756,-164,-176,867
511838267,-4336,-1852,15848,-148,-111,615
511839938,-5308,-1680,15356,318,-16,-87
511841608,-3264,404,16276,262,-77,180
511843327,-3172,4,16692,-19,-20,560
511845026,-3572,-2396,16700,-195,-63,460
511846772,-3112,-2908,14372,183,237,-246
511848517,-4180,-592,14764,142,438,-366
511850245,-4756,-640,16452,8,392,22
511852243,-6140,-2332,16288,-43,-181,-100
511854118,-3608,-340,15432,240,-15,-1065
511855897,-2992,2344,17208,-55,141,134
511857608,-3516,-1820,17348,-193,317,470
511859308,-4904,-2152,16600,4,232,-118
511861018,-6072,68,16788,368,-289,-437
511862711,-3900,2272,16456,153,-104,276
511864395,-4460,1732,16900,-49,-103,846
511866070,-4196,-2500,16424,-119,-762,825
511867740,-3164,-2032,15644,283,-273,-552
511869413,-3420,104,15424,288,-175,-474
511871087,-3064,108,15476,-147,-80,729
511872791,-5636,-3368,16412,-184,-373,192
511874604,-3800,-1900,15524,167,-262,-787
511876304,-3376,-268,16144,165,-179,-641
511877975,-2356,84,15832,-130,-259,-32
511879642,-2980,-1932,16552,-138,183,0
511881300,-4116,-1736,16472,-8,66,-480
511882955,-3656,1136,16252,88,-255,-567
511884661,-4424,692,16452,-215,-223,474
511886360,-4628,-492,15920,-180,-326,330
511888080,-3480,60,17180,131,-422,-453
511889792,-1560,2276,16924,-77,-527,213
511891503,-2500,-428,15532,-344,-83,1029
511893211,-3452,-2380,15168,-206,-89,714
511894944,-3724,-2080,16100,65,-115,-361
511896654,-3052,660,15388,-50,-245,4
511898363,-2220,384,15524,-177,12,447
511900081,-3792,-2208,15908,-265,44,420
511901790,-3288,-1744,15392,6,-120,-621
511903500,-2608,100,16348,-35,240,64
511905213,-3304,-496,16396,-136,201,333
511906987,-4256,-1016,16676,-128,-42,-280
511908970,-4280,-128,16468,-163,-321,-72
511910729,-3064,228,16196,-242,-200,-184
511912489,-2520,-776,16316,-301,-43,272
511914322,-2956,-2284,16036,-222,-51,198
511916127,-3660,-2032,16268,89,102,-684
511917812,-2932,576,16080,114,-152,-188
511919489,-3024,-688,16132,-166,34,417
511921208,-3688,-1440,16424,-162,6,143
511922955,-2996,-456,16588,25,-187,-381
511924699,-2080,312,15272,-155,-262,65
511926406,-2028,-1692,15960,-204,308,295
511928119,-3072,-2688,16484,-78,298,84
511929758,-3380,-2372,16076,129,77,-494
511931390,-4108,-1456,16072,163,35,-468
511933045,-3604,212,16428,-17,-81,-230
511934731,-2708,-304,17000,-121,89,118
511936440,-2848,-2052,16472,-52,-105,-40
511938179,-3240,-2188,15796,19,-89,-354
511939894,-2956,-760,15664,135,98,-413
511941580,-3104,-1044,15820,80,347,-161
511943258,-3760,-988,16808,53,314,-337
511944940,-2936,476,16980,33,81,-466
511946688,-2888,896,16716,-127,194,102
511948489,-3596,-1520,15880,-134,111,255
511950232,-4088,-1892,15332,-46,123,-149
511951932,-4524,-424,16568,129,68,-534
511953628,-3548,692,16176,42,-290,22
511955334,-3116,396,15832,-122,-258,169
511957066,-2924,-408,16056,-203,49,-141
511958768,-2540,-184,16696,-155,130,26
511960474,-3828,-1856,15952,-88,-7,203
511962176,-4508,-2368,15508,25,-32,-71
511963872,-3628,-316,15476,137,186,-450
511965576,-4332,240,16892,-97,44,355
511967357,-4692,-812,16852,-96,-232,383
511969064,-2952,-256,15420,-82,-85,-266
511970727,-3536,536,15868,-178,204,281
511972414,-3684,-1376,16872,-174,151,487
511974141,-6036,-1956,17220,-134,-39,325
511975840,-4656,-2036,14996,92,-601,-60
511977623,-3540,-672,16284,22,43,-97
511979331,-4344,-576,16512,-9,-155,207
511981628,-2624,-716,16708,-59,204,-215
511983312,-4596,-60,15812,-155,25,-130
511984987,-4284,-1512,15312,-132,-5,274
511986656,-6040,-2772,16572,99,-162,-340
511988338,-4736,-1128,16336,144,-446,-915
511990035,-2508,1644,16168,-69,-318,-96
511991748,-2516,-1200,15636,-156,-107,276
511993454,-2628,-936,15892,38,203,-535
511995150,-3560,320,16036,35,64,-519
511996875,-3196,1420,16872,-179,8,77
511998624,-4352,-40,16024,-210,-9,274
512000326,-3948,-452,16348,-146,-182,98
512002038,-2884,160,16220,-159,-264,18
512003748,-1916,-1308,14960,-182,-77,508
512005446,-3244,-2180,15492,42,223,-153
512007152,-3040,-808,16100,40,111,-460
512008878,-3268,848,16064,-216,198,148
512010582,-4876,-1348,16432,-349,-45,534
512012307,-3784,-2288,16228,-264,-194,36
512014116,-2924,-1064,16472,-116,126,-496
512015913,-2864,-1152,16348,-64,7,76
512017661,-2624,-2048,15372,-5,44,-213
512019445,-3484,-744,15828,-58,196,-416
512021128,-3236,-144,16544,-40,199,-241
512022805,-3260,188,16296,-9,-92,41
512024513,-3104,-284,16068,-156,-245,37
512026209,-1940,-464,15988,-175,-123,-58
512027893,-1776,-504,15384,-64,327,86
512029569,-2916,-1980,15496,46,241,133
512031240,-3344,-2268,16020,55,201,-156
512032910,-3168,-896,15788,25,258,-304
512034651,-3292,-76,16200,-26,318,-96
512036344,-2944,-64,16056,-170,130,-10
512038019,-2564,-760,16900,-231,320,110
512039763,-3572,-2728,16092,-83,301,-19
512041445,-4536,-1816,16328,149,353,-783
512043126,-5616,-488,16428,165,130,-671
512044813,-3152,192,16104,1,10,-255
512046501,-3308,-104,16732,-140,82,-88
512048187,-3128,-604,16240,-120,19,-83
512049934,-3240,-232,15060,-19,300,-358
512051641,-3844,312,15708,-6,308,94
512053349,-4064,-232,16816,-117,63,78
512055068,-4244,376,15660,-129,71,-146
512056789,-3456,1528,15896,-159,256,187
512058501,-3204,-776,16500,-214,73,830
512060225,-3148,-2616,16508,-211,136,613
512061934,-4788,-2596,15488,50,238,-180
512063761,-4784,-676,15320,213,115,-45
512065500,-4612,-1012,17288,-97,60,259
512067203,-4852,-1636,17820,-205,-94,196
512068895,-3132,-1560,15368,-47,-269,-343
512070591,-2880,104,15580,-88,286,-247
512072256,-3256,-492,16248,-189,218,166
512073900,-4916,-2944,16116,-106,114,-109
512075615,-4408,-944,15304,240,-106,-835
512077287,-3864,944,15092,182,5,-680
512078934,-3488,1684,16656,-79,-129,240
512080631,-1748,-112,16904,-258,-30,222
512082307,-2424,-604,15976,-89,190,38
512084059,-3472,-80,14956,-21,283,-28
512085767,-4876,-552,16392,-58,174,601
512087464,-4268,-2164,16496,-28,-98,-49
512089152,-3924,-612,15920,30,-134,-467
512090935,-2916,1468,16128,-141,-177,315
512092661,-2172,-2260,15832,-227,296,701
512094379,-3808,-2644,15872,-106,61,-570
512096094,-2312,-1300,16152,-21,117,-643
512097814,-5572,296,16380,-138,137,57
512099591,-3432,-1608,15524,-98,-176,68
512101485,-3884,-896,16416,-164,-102,-465
512103215,-2600,-240,16224,-167,-249,-435
512104901,-1648,216,15572,-41,159,18
512106583,-2164,-1192,16484,-111,162,123
512108264,-3272,-496,15656,-236,208,-369
512109982,-3772,376,15160,-164,218,-313
512111750,-2516,1500,15756,-244,233,19
512113463,-2500,-1652,16560,-458,259,560
512115173,-2500,-3340,16456,-323,344,151
512116919,-2480,-1516,14712,66,407,-777
512118666,-3368,-232,15780,-86,596,70
512120371,-3868,-2448,16844,-123,431,69
512122148,-4488,-2296,17368,-105,361,-507
512123841,-3876,-304,16360,-24,-69,-553
512125566,-3176,768,16588,-191,125,-154
512127272,-1600,-1868,16036,-174,302,149
512128964,-2020,-2620,15960,-96,447,-279
512130643,-3040,-912,15912,104,304,-669
512132315,-2884,1092,15668,-33,464,-156
512133984,-2792,720,15956,-105,477,285
512135673,-3044,-752,16488,-246,395,17
512137362,-2216,540,15796,-173,440,-225
512139031,-2404,732,15340,-156,672,191
512140712,-4144,-1244,16360,-86,660,545
512142454,-5328,-1752,16400,-78,201,-192
512144162,-4600,-680,16180,-39,150,-325
512145868,-3216,540,17220,-22,271,312
512147567,-3120,-1512,17572,-120,175,498
512149259,-4072,-2444,15976,-108,281,-75
512150954,-4244,-2028,15592,-67,228,-233
512153749,-4544,276,16464,3,265,-134
512155548,-3140,-1304,15352,-192,47,313
512157271,-3368,-1132,15676,-69,353,-396
512158980,-3040,-116,15428,-1,186,-356
512160750,-2428,240,15276,-108,470,226
512162492,-4420,-2096,16128,-118,556,253
512164223,-4284,-640,15812,107,294,-627
512165937,-3948,1184,15548,66,270,-339
512167625,-3768,-340,16776,-164,475,709
512169310,-4644,-2184,16272,-2,284,-23
512170988,-3904,-1268,15960,46,229,-366
512172670,-3592,704,16428,-85,420,45
512174335,-4900,-932,17064,-232,431,635
512175987,-5400,-2392,16724,-149,177,442
512177687,-4920,-1872,16200,-40,-199,-499
512179357,-3100,-20,16324,-70,-4,-165
512181009,-3000,-548,16536,-61,201,282
512182662,-3916,-2604,15884,44,8,20
512184315,-3248,-40,16356,101,78,-827
512185984,-3056,1908,16132,4,151,-471
512187665,-2776,660,16244,-247,351,766
512189344,-4332,-2352,15644,-133,106,51
512191022,-3712,-1820,15580,-38,81,-502
512192731,-3004,1496,15596,-23,211,-197
512194411,-3176,-368,16340,-180,153,781
512196112,-3576,-2164,16796,-195,135,507
512197853,-3768,-1188,15296,-19,66,-510
512199733,-2748,776,16012,-94,227,141
512201600,-3156,-1512,17132,-229,235,468
512203370,-3744,-1828,15956,-116,228,-310
512205133,-3360,-536,16052,-98,230,-256
512206853,-3172,-380,16288,-93,135,-21
512208533,-2980,-1552,15988,-116,148,21
512210245,-2548,-768,15192,-18,351,-411
512211956,-2348,4,15932,-51,411,-330
512213691,-2820,712,16016,-200,386,62
512215380,-2620,-1300,16936,-180,615,210
512217135,-4392,-1020,16284,-14,352,-301
512218873,-3744,-356,15920,26,96,-257
512220569,-3304,-520,16148,-21,270,219
512222253,-3252,-1380,17044,-31,353,30
512223934,-3696,-1012,15940,-71,223,-43
512225662,-2832,-2188,15440,22,240,216
512227377,-3356,-1168,16780,119,594,-443
512229065,-3544,244,16532,56,461,-357
512230757,-4092,152,15388,-222,265,467
512232445,-4236,-3324,16436,-80,427,182
512234125,-4368,-1668,16048,291,90,-640
512235831,-3632,-256,15448,277,1,-340
512237520,-2816,140,16156,67,287,115
512239185,-3472,104,16440,26,216,241
512240843,-2832,-608,16428,60,87,409
512242500,-3136,-1856,15720,107,442,266
512244159,-5216,-1024,15164,137,499,-4
512245878,-4760,-844,15980,200,338,149
512247588,-4180,-1092,16860,173,82,245
512249317,-4064,-1376,16900,136,179,45
512251027,-4132,-1236,16508,180,146,40
512252730,-4116,-1228,16200,217,224,70
512254430,-4940,-932,17268,199,105,7
512256124,-5308,-1008,17072,176,-204,97
512257817,-4400,-860,15872,215,-306,-63
512259509,-2720,56,16232,152,-56,-50
512261209,-3436,-1760,16204,113,-45,478
512262934,-3032,-2924,16200,336,53,177
512264661,-4180,236,16056,466,80,-868
512266480,-3840,3140,15920,-23,-152,379
512268178,-4164,-484,15756,-149,-49,920
512269843,-3804,-2232,16172,-17,-153,496
512271504,-2756,-1972,14788,264,-133,-395
512273166,-3064,484,15752,239,387,-33
512274827,-3892,620,16196,97,387,285
512276487,-5832,-1424,16568,53,-56,296
512278182,-5028,-200,16308,14,-228,-433
512279907,-4084,996,16600,-49,-96,-227
512281667,-4016,-888,16536,-86,-227,745
512283467,-3152,-3420,16660,99,-89,-104
512285237,-5044,-880,16420,209,69,-590
512287045,-5116,64,16708,280,-40,-252
512288756,-5328,940,17184,64,-394,-10
512290461,-3944,-28,16752,-117,-675,105
512292255,-3216,244,15448,-38,-440,-114
512294073,-1996,8,15332,-4,-207,285
512295832,-3160,-400,15364,-29,-157,196
512297628,-3204,-1440,15800,-77,-302,223
512299317,-4032,-1628,15600,72,-127,-252
512300995,-3668,-288,15912,136,-217,-580
512302667,-2256,1752,16332,-254,-239,305
512304339,-3220,-3112,15980,-358,-102,744
512306008,-2912,-4480,15896,-84,-77,-127
512307693,-2692,-336,16240,173,89,-1019
512309380,-3436,1048,17140,-172,39,312
512311096,-4584,-2112,16356,-176,-268,237
512312820,-4324,-2244,16016,-101,-419,-414
512314534,-2052,464,16372,-51,-188,-627
512316246,-2608,312,16952,-176,-31,241
512317955,-2588,-924,16532,-154,-181,247
512319724,-2828,-2452,15696,20,-225,-228
512321441,-3124,-36,15204,140,-38,-610
512323095,-2680,1076,15332,-1,7,199
512325221,-2868,-604,16532,-214,-243,421
512326920,-2416,-1052,15876,-246,-190,111
512328599,-2028,460,14368,-117,292,-221
512330258,-2328,-416,15760,-114,523,652
512331950,-3008,-2048,16756,-157,484,434
512333647,-5064,-2584,16548,22,185,-84
512335336,-4508,-1360,15428,250,29,-307
512337056,-3544,1132,17292,-4,142,-252
512338778,-3780,1624,17832,-238,-73,109
512340561,-3160,-1704,17204,-299,-108,711
512342239,-4588,-3924,16188,102,-54,-222
512343907,-5468,-2820,16160,249,-191,-629
512345575,-4596,276,15592,295,-489,-565
512347243,-1976,1444,16796,-23,-321,174
512348907,-2032,132,17076,-164,-368,515
512350617,-1844,-1800,14332,-9,-161,-193
512352313,-2200,812,14144,-7,544,-378
512354025,-4676,-760,15708,-219,263,649
512355736,-4708,-2804,15688,-121,81,436
512357446,-3980,-780,15704,129,330,-1123
512359154,-3180,2552,17032,-118,278,133
512360898,-3652,416,16872,-267,153,938
512362677,-4888,-4660,16612,-52,194,35
512364454,-5952,-1696,17104,367,-33,-1025
512366216,-5744,1468,17140,188,-510,-99
512367940,-5360,904,16824,4,-679,333
512369661,-3880,-1884,16220,-98,-653,148
512371556,-2700,-1824,15900,205,-369,-645
512373295,-2480,844,15472,153,-284,-439
512374978,-4012,-64,15024,-96,-96,365
512376649,-4360,-1452,15164,-96,-222,326
512378314,-2976,-892,15204,112,-20,-710
512379981,-3056,2096,16108,-71,2,-173
512381733,-2784,1380,15332,-191,-26,366
512383420,-2188,-1776,15992,-137,403,326
512385350,-5232,-1924,16304,37,219,-469
512387101,-5000,1272,17636,74,113,-458
512388802,-5828,1972,17728,-92,-139,133
512390506,-4536,-1320,16648,-262,-739,714
512392232,-3156,-2420,16624,2,-286,-380
512393930,-3576,-628,16684,77,-339,-661
512395630,-1608,-24,16080,-50,-296,353
512397329,-4736,-2848,15572,-40,-422,211
512399024,-3012,-1388,15508,146,-296,-884
512400722,-2656,568,15460,106,-214,-728
512402484,-1632,1388,16504,-231,-243,108
512404197,-1764,-1592,15724,-278,-199,294
512405913,-1268,-2164,14320,-20,193,-467
512407630,-1708,-820,14388,43,375,-596
512409341,-2932,396,16708,-91,344,-138
512411082,-3864,-948,16952,-183,102,153
512412838,-4464,-1504,16032,-128,-63,-34
512414560,-3192,-140,15580,-9,-121,-552
512416243,-2476,1012,16632,-277,244,-51
512417965,-2552,-716,16456,-248,164,169
512419671,-2424,-1612,16240,-177,172,31
512421405,-4288,-1956,15952,-79,368,-201
512423186,-4592,-400,15920,35,169,-380
512424863,-4468,412,16228,9,47,-232
512426529,-4064,-652,17404,-170,-308,387
512428236,-3104,-1984,16404,-99,-241,-204
512429931,-1476,-8,15180,111,17,-396
512431600,-1956,432,15552,55,166,-19
512433333,-2736,-964,16388,-179,181,409
512435014,-4084,-1700,15616,16,39,-195
512436690,-3776,-640,15128,82,-32,-413
512438368,-2800,1508,15740,-153,202,-38
512440081,-3476,-548,16316,-270,58,691
512441763,-2712,-2280,16100,-152,-19,427
512443498,-3052,-1100,15720,9,290,-541
512445171,-3624,600,15916,-51,301,271
512446840,-3776,-404,15952,-54,221,553
512448520,-4236,-1776,16832,-59,88,14
512450196,-2976,-744,16056,-52,6,-147
512451860,-2936,-48,15932,-80,212,-25
512453606,-3764,-1524,16092,-3,80,560
512455308,-4248,-2904,15940,59,7,-96
512457031,-4712,-760,16152,75,-12,-520
512458741,-3900,216,15660,110,-62,-247
512460461,-3288,544,16108,-83,48,1
512462182,-2672,-552,16552,-287,132,131
512463933,-3452,-1192,15764,-123,333,-57
512465773,-3644,-1536,15248,-13,299,-29
512467512,-5672,-1676,14964,92,141,-143
512469206,-4268,-564,16068,134,16,-352
512470893,-4408,776,16696,-42,-81,-11
512472575,-3464,240,16480,-79,-281,216
512474275,-3124,-432,15988,-99,83,-58
512475984,-3188,-488,16760,-85,185,239
512477729,-3864,-1304,16608,-119,130,358
512479428,-5836,-2228,15808,72,-254,-204
512481127,-3760,348,15696,174,-31,-343
512482831,-3608,680,16592,61,-23,126
512484600,-2572,-1612,16416,-83,-454,205
512486311,-1928,-660,15984,-24,271,-537
512488052,-3712,1320,15700,-83,-67,-14
512489762,-2912,76,16244,-135,-69,545
512491477,-5360,-2852,16076,-125,-267,3
512493191,-2204,216,15600,45,-50,-954
512494925,-2776,1152,16144,-151,27,476
512497786,-2192,-2092,15684,-194,100,60
512499531,-3096,-796,16024,-92,404,-536
512501240,-3456,320,16552,-108,268,70
512502952,-4868,-992,16232,-151,15,310
512504662,-4572,-1484,16404,-129,-84,1
512506445,-2960,-508,16336,-26,-84,-189
512508150,-2888,-804,16212,-63,-81,200
512509874,-2712,-1504,16144,-14,93,-145
512511590,-2608,-1096,16860,46,151,-283
512513290,-2740,1196,16424,-180,61,-332
512514990,-3264,824,16112,-372,90,461
512516766,-3156,-728,15380,-351,166,497
512518443,-3060,-1876,15856,-148,136,-277
512520101,-2456,-1360,14720,-34,-74,-26
512521796,-2216,-1876,14988,70,469,-142
512523511,-2808,-1016,15884,92,536,-341
512525200,-2748,468,17516,-113,259,19
512526928,-3284,-412,16624,-326,184,246
512528630,-3732,-872,16164,-274,310,132
512530338,-3552,-688,16200,-110,252,-76
512532061,-3232,-1624,17136,-60,174,96
512533740,-3492,-2112,17120,-40,122,-18
512535424,-3848,-1584,15756,139,72,-361
512537115,-3060,128,15268,89,6,-234
512538794,-2788,528,15528,-29,43,-45
512540464,-2616,-256,16892,-230,189,115
512542132,-2540,-1004,15780,-57,229,-60
512543921,-3332,-640,15132,-85,339,127
512545768,-4268,-1648,16016,-3,426,-87
512547557,-3908,-1088,16840,30,276,-367
512549258,-2640,128,16324,-154,296,-28
512550961,-4480,-896,15440,-167,396,232
512552639,-3900,-1740,15020,-22,359,100
512554319,-4528,-684,16848,-37,539,-435
512555999,-4468,-596,16804,-83,43,141
512557760,-4692,-944,15680,-82,173,38
512559463,-4644,-768,15988,27,116,-203
512561199,-3548,60,17444,-152,70,-91
512562958,-3256,-1248,17176,-157,135,191
512564735,-4564,-2008,15648,33,95,-187
512566495,-4552,-1564,15096,157,-19,-233
512568323,-4108,216,16100,88,-164,-343
512570001,-2164,208,17076,-2,5,183
512571660,-3092,264,15904,-80,-35,106
512573317,-1964,-648,14468,-54,-31,297
512574973,-3280,-752,15576,-102,375,85
512576630,-2568,-800,15748,-68,347,154
512578328,-5096,-1400,15524,-33,243,46
512580054,-3616,-1004,15328,28,157,-106
512581768,-3708,-572,16552,-82,269,21
512583477,-2752,-916,16544,-46,114,63
512585187,-2852,-608,16428,-138,527,-126
512586897,-4792,-976,16380,-124,321,-60
512588631,-4292,-1012,16696,-32,162,-204
512590341,-4228,-592,16436,-45,124,-141
512592078,-4132,-524,16600,-95,-22,-293
512593792,-3360,-192,15808,-5,-12,-107
512595502,-2500,-12,15872,-27,-52,-257
512597211,-1732,752,16656,-81,301,-81
512598944,-3140,368,15956,-228,251,320
512600655,-3456,-516,15176,-197,211,391
512602363,-3940,-1172,15600,-51,42,-120
512604075,-1780,168,16136,-104,270,14
512605779,-3272,-1084,15544,-194,314,375
512607483,-2608,-1764,15504,-115,200,90
512609218,-2508,-396,16296,-114,475,-414
512610937,-2536,-608,16200,-240,552,257
512612683,-3452,-1584,16520,-205,599,107
512614421,-4680,-1476,16396,-126,209,-291
512616152,-3676,-364,16424,-166,239,-428
512617872,-2704,-548,16944,-175,322,-12
512619662,-3068,-860,16892,-255,255,-219
512621329,-2400,-772,16000,-200,253,-311
512623122,-2744,-824,16372,-103,596,-247
512624914,-3540,-652,16108,-77,248,-112
512626624,-3512,-948,16164,-127,197,-29
512628285,-3468,-764,14980,-50,235,-125
512630044,-2936,-168,16208,-16,434,-111
512631804,-2000,-568,16132,-141,342,98
512633571,-2260,-824,15412,-184,499,-13
512635277,-2412,-1272,15200,-66,885,124
512636949,-4880,-1852,16416,-67,796,11
512638613,-5024,-1696,16380,-61,470,-147
512640281,-4516,-300,16644,-73,549,-304
512641985,-3720,-544,16624,-107,376,217
512643686,-4796,-2276,16876,-70,328,-199
512645394,-4604,-1960,16988,47,152,-488
512647095,-4376,-188,17192,31,301,-379
512648787,-4584,-488,16044,-63,-6,94
512650548,-3796,-824,15688,-14,21,-40
512652255,-3240,-172,17268,65,219,-260
512653966,-2220,128,16120,-19,207,110
512655684,-3796,-684,15060,-65,426,367
512657414,-4660,-1328,15068,-24,418,246
512659133,-4120,-1112,16044,123,214,-91
512660849,-3528,704,16276,1,238,-123
512662571,-3820,1076,15784,-132,173,232
512664352,-3204,-1288,15704,-243,342,581
512666120,-3628,-2288,15648,15,351,-136
512667869,-4704,-2028,16428,27,321,89
512670451,-4660,-2924,16652,188,389,-31
512672177,-5280,-644,17848,311,32,-640
512673860,-2704,580,16760,16,-180,-15
512675525,-2360,-52,16684,-65,202,179
512677201,-3644,-740,16228,16,213,-50
512678867,-3672,-1672,16380,182,223,23
512680528,-5728,-1824,16736,251,55,-47
512682247,-4160,176,15004,260,-251,-518
512683946,-3172,2048,16224,-8,-52,207
512685700,-2088,-796,16360,-94,-200,644
512687453,-1300,-2124,15480,-11,130,315
512689179,-4268,-1072,15424,217,431,-321
512690892,-3800,-132,15644,96,174,292
512692692,-5172,-1252,16344,41,240,82
512694386,-4128,-772,16988,131,52,-270
512696071,-2956,888,16932,-93,109,107
512697751,-3884,-1020,16104,-181,178,441
512699433,-4136,-1944,16340,-52,236,257
512701113,-5240,-2008,17060,120,-34,-297
512702846,-4976,336,16908,130,-242,-348
512704550,-5028,1156,16740,29,-252,-90
512706264,-4396,312,16696,-75,-520,419
512707971,-3388,-1348,16112,-76,-597,190
512709721,-1896,-768,15132,48,-159,-67
512711442,-2224,-136,14864,26,-22,82
512713310,-2868,-1012,15164,-92,42,476
512715060,-4244,-1900,15288,-28,18,-38
512716758,-3688,-232,15568,60,255,-466
512718438,-3204,740,16060,-25,175,-252
512720122,-3512,-76,16428,-205,132,233
512721800,-3076,-2236,16436,-126,136,160
512723535,-3916,-2416,15896,-11,270,-109
512725239,-4644,-1484,16896,192,26,-421
512726951,-4636,116,17696,28,-233,-64
512728662,-4092,-1224,17536,-79,-425,130
512730412,-3472,-1272,16876,-6,-413,-215
512732158,-2568,348,15612,53,-268,-373
512733961,-1700,-388,16204,-34,140,133
512735682,-3384,-1508,15680,16,-83,13
512737382,-3700,-1496,14872,42,-237,-152
512739067,-3000,-108,14904,124,68,-360
512740749,-2552,912,16604,-6,14,124
512742432,-2696,432,16252,-147,-209,261
512744114,-1940,-1368,16100,-80,-61,126
512745816,-2460,-964,15740,41,370,-247
512747527,-3400,-304,15988,72,405,-109
512749236,-4540,-1060,16244,34,-170,255
512750944,-3512,-896,16728,-58,90,-281
512752654,-1580,-868,16708,26,83,171
512754364,-2988,-1372,16316,26,216,207
512756074,-3660,-2272,16640,70,54,-18
512757784,-5248,-1724,16780,119,149,-337
512759492,-5832,-1404,16568,218,-197,-267
512761206,-3372,-128,16036,232,-253,-563
512762922,-3296,1548,17312,-83,-81,-297
512764747,-2156,328,16620,-188,-169,312
512766474,-2896,-1044,15132,-150,-100,365
512768203,-4064,-2052,15048,94,103,-351
512769897,-4756,-124,15812,203,-58,-287
512771570,-3864,1140,16836,1,-181,-7
512773245,-3840,712,17000,-142,-277,366
512774986,-3044,-1760,15620,-102,-256,228
512776668,-2792,-212,15832,41,365,-376
512778361,-3644,100,16792,-37,292,88
512780074,-5484,-2184,16988,-71,-11,292
512781760,-6256,-1200,15824,100,-397,-523
512783441,-4648,144,15176,63,-412,-477
512785179,-4276,-160,16924,-140,-304,316
512786881,-2540,-2484,16748,-33,-390,7
512788594,-3636,-568,16336,130,-24,-635
512790311,-4336,1084,15712,53,-148,-430
512792061,-4268,276,16384,-176,-152,526
512793777,-4720,-860,16520,-102,-425,-140
512795520,-3216,-204,16224,-70,-545,-250
512797233,-2532,-168,15448,-151,-335,254
512798943,-3056,-1488,15512,-76,-7,88
512800653,-2972,-988,16000,33,-179,-122
512802367,-2988,-744,16536,-82,-184,-40
512804076,-3948,-1100,16520,-88,-143,-36
512805811,-3868,-356,16420,-34,-221,-178
512807520,-3480,-208,16260,-118,-336,-42
512809227,-2548,-1332,16444,-225,-235,141
512810944,-2316,-2408,15760,-39,-77,-241
512812664,-2912,-908,16228,52,6,-503
512814467,-3096,-368,16632,0,-108,-363
512816270,-3644,212,16392,-184,-163,-214
512817973,-2484,56,16076,-176,-294,-213
512819636,-1992,104,16076,-172,-64,-232
512821303,-2352,-288,16632,-201,-75,-51
512822968,-2532,-1928,15348,-30,-168,71
512824632,-2316,-1388,14900,119,74,-568
512826307,-2080,64,15780,99,217,-569
512828039,-2596,168,16876,-159,258,383
512829762,-3920,-1232,16988,-62,57,-102
512831483,-3760,-516,16204,-64,-85,-349
512833240,-2308,164,15532,-153,96,-39
512834980,-2584,-1052,16864,-131,403,258
512836774,-4232,-2988,16168,62,26,-123
512838468,-4208,-2332,16348,171,-90,-597
512840146,-3488,596,15744,76,109,-276
512842675,-3692,-1836,17612,-32,-124,-32
512844404,-3756,-1460,17116,67,-271,-564
512846112,-2004,740,16548,92,-63,-366
512847822,-3444,-32,15544,-48,77,279
512849510,-4148,-1352,16460,-2,-217,-194
512851183,-3888,-748,15920,36,-300,-445
512852855,-1944,956,16236,-57,-188,-45
512854532,-1228,-1428,15560,-160,-8,477
512856216,-2212,-2148,14176,-84,253,72
512857966,-3096,-800,15804,31,462,-435
512859671,-3968,-528,15972,39,275,157
512861394,-4652,-988,15932,-22,135,63
512863108,-3368,420,16016,-67,106,-456
512864830,-3496,156,17052,-123,278,414
512866561,-3032,-2712,16436,-40,8,27
512868333,-3408,-2252,16044,81,150,-316
512870081,-5760,-608,16092,180,-48,-135
512871763,-3800,-436,16248,171,-40,32
512873416,-4768,168,16856,52,-78,-113
512875078,-2884,836,15936,-70,-648,151
512876737,-1564,-124,15296,-156,250,439
512878447,-2924,-860,15320,-171,344,432
512880134,-3240,-1524,15112,-96,264,16
512881834,-4980,-464,15608,-126,178,59
512883650,-4176,-1284,15884,-223,336,221
512885512,-5276,-1044,16688,-143,9,-107
512887268,-4172,-304,16000,-163,-212,-234
512889051,-3032,-772,16732,-233,449,461
512890740,-5928,-2760,16556,-168,0,153
512892416,-5772,-2464,16780,-31,-205,-274
512894101,-6544,-1004,16520,134,-397,-127
512895788,-3816,-312,16784,-4,-576,-3
512897461,-3144,-1372,16292,10,-697,83
512899195,-1812,-1448,15676,109,-415,-226
512900898,-2628,352,15184,97,-43,-178
512902608,-3020,-68,15384,4,-40,94
512904316,-3768,-256,16100,-29,-19,9
512906023,-2952,768,14332,-65,-41,-249
512907730,-2696,1524,15348,-269,219,339
512909463,-3068,-2352,15064,-318,108,624
512911182,-2936,-3304,14228,-136,356,-62
512912944,-3904,40,17412,64,627,-754
512914726,-4484,-388,18088,-185,62,412
512916463,-6696,-2184,17460,-161,-257,-289
512918176,-5784,-1664,16680,-2,-585,-560
512919971,-3432,16,16644,-50,-472,-532
512921696,-2116,-256,17032,-201,-465,-211
512923369,-1548,-756,16296,-163,-376,-269
512925039,-1564,-824,14884,-82,-259,-439
512926709,-1696,-332,14144,-138,130,-369
512928378,-2052,-104,14092,-176,293,-259
512930095,-2828,-440,15660,-58,301,-14
512931792,-1592,-8,16500,-92,169,-234
512933552,-3508,-104,15892,-252,216,242
512935309,-3284,-948,15144,-172,160,288
512937033,-2368,-1128,15536,66,297,-176
512938744,-1532,-1908,17364,42,435,235
512940535,-3656,-2284,16832,181,216,-288
512942227,-3492,-444,15408,226,203,-552
512943911,-3644,692,15544,-24,227,427
512945591,-3172,-1956,17024,-76,203,72
512947272,-3208,-1728,16876,38,249,-414
512948953,-3532,508,15644,110,-6,-204
512950688,-2308,-136,15812,-73,337,58
512952388,-3712,632,16812,-247,391,-67
512954100,-3472,68,15612,-243,181,315
512955809,-3624,-1192,17196,-196,452,-85
512957516,-3728,624,15868,-110,45,22
512959223,-2908,188,15292,-137,188,482
512960939,-3648,-1556,16468,-146,347,313
512962653,-4308,-392,17316,-116,214,90
512964363,-5496,-444,16136,-125,-20,527
512966071,-3992,-1948,14852,68,-196,174
512967854,-3032,-112,16932,-154,23,2
512969692,-3020,-2208,14852,-197,189,767
512971547,-4892,-3396,14092,195,220,-225
512973284,-3388,-1904,15912,192,414,-734
512974945,-6040,692,18400,-249,305,194
512976593,-4676,-3152,14600,-70,-307,419
512978235,-3464,-3376,16204,130,178,-611
512979875,-4252,1176,16328,101,-38,-682
512981678,-3756,-608,15700,-196,48,573
512983455,-4784,-2764,15888,133,-61,-487
512985194,-4448,-736,16524,234,-108,-1158
512986900,-3324,3852,15232,-17,-467,-10
512988601,-2096,-896,16664,-296,169,993
512990296,-3024,-2456,17640,-184,162,126
512991992,-2344,476,15008,7,-160,-532
512993786,-3584,76,14720,-105,433,665
512995488,-3844,-1292,16868,38,217,-5
512997195,-3788,-124,16996,-44,4,-338
512998895,-2740,552,15192,-243,28,456
513000589,-3920,-1096,16200,-121,337,295
513002285,-4064,-1280,16340,-59,109,94
513004072,-2808,-1880,16512,-148,209,113
513005788,-3916,-788,16552,-161,214,-283
513007508,-3660,-260,16644,-128,117,121
513009225,-3916,-1356,17268,-165,17,344
513010949,-3292,-2200,16688,-164,-102,-405
513012809,-2856,-324,15720,-42,-72,-349
513015477,-2488,-516,16232,-66,177,-113
513017188,-2764,-420,15840,-108,138,-78
513018868,-2716,8,15144,-200,193,-160
513020540,-2244,76,15684,-183,162,-104
513022208,-1960,204,15428,-151,301,-117
513023876,-2764,-480,15980,-225,461,203
513025562,-3376,-2148,15524,-142,289,-28
513027269,-3284,-1628,14788,-65,247,-393
513028969,-3056,-64,16392,-12,442,-60
513030667,-3296,-1076,17012,-37,278,388
513032360,-3548,-1012,16948,-157,177,-338
513034077,-3580,-64,15856,-168,71,-265
513035822,-2564,-84,15756,-148,569,229
513037541,-3704,-2048,16100,-63,310,201
513039262,-3044,-2784,16852,-12,237,-109
513040977,-4368,-608,15160,44,93,-630
513042687,-2676,1276,15568,27,284,-48
513044479,-2240,-472,16680,-144,232,543
513046175,-2500,-1324,16676,-232,278,222
513047865,-2540,-440,15128,-115,463,-198
513049551,-2652,-420,15500,-9,617,295
513051232,-3684,-804,15592,-40,548,267
513052911,-3752,-1300,15900,-116,510,79
513054650,-3932,-192,15832,-204,419,-4
513056355,-3324,-1280,15828,-122,488,369
513058066,-4068,-2512,16336,-33,517,343
513059778,-3976,-2264,16716,91,586,-580
513061494,-5160,876,16584,-70,345,-275
513063202,-4456,724,16208,-172,129,165
513064989,-4944,-768,17088,-196,319,-27
513066694,-3384,-1028,16576,-68,104,-90
513068381,-3928,-628,16080,-63,60,-120
513070124,-3280,-584,15292,19,-18,-14
513071857,-4324,-432,15996,9,330,163
513073576,-4028,-1068,15484,1,-9,245
513075367,-3784,-172,16088,-61,68,-103
513077051,-3360,380,15700,-72,27,95
513078728,-2176,-544,15936,-110,529,471
513080399,-3632,-1668,15384,-47,462,300
513082068,-3968,-1548,16096,-45,462,76
513083739,-5456,-1248,16128,14,245,185
513085458,-4804,-1600,15860,43,222,88
513087157,-4948,-1740,16040,63,122,10
513088869,-2944,-968,17016,49,135,-420
513090577,-3356,520,16876,-133,283,-24
513092287,-4432,-1644,16644,-114,273,231
513093997,-5452,-2592,16532,12,186,-113
513095730,-4512,-864,16432,113,-32,-847
513097441,-2672,1768,16404,-42,3,-250
513099155,-2572,1536,17076,-136,-14,122
513100866,-2376,-656,15828,-201,101,203
513102575,-3456,-1824,14656,-20,222,-180
513104284,-2656,748,15596,105,84,-671
513106016,-2312,1964,16220,-57,211,-222
513107725,-3624,-784,16180,-263,232,704
513109438,-3256,-2020,16020,-48,77,-502
513111152,-2796,-564,15580,8,130,-636
513112927,-2160,-48,16396,-90,432,229
513114737,-2932,-1852,16652,-5,457,1
513116581,-3380,-492,16792,-78,242,-481
513118283,-3756,-8,15988,-152,290,60
513119979,-4148,-472,16556,-83,293,148
513121704,-3504,-1332,16640,-39,-157,-148
513123388,-2232,96,16148,-165,-48,-556
513125077,-1112,1056,16080,-153,120,-358
513126823,-1736,748,15752,-235,451,380
513128519,-3596,-3188,15616,-262,376,636
513130226,-4684,-4192,15048,-143,294,-32
513131923,-2748,-936,15188,339,412,-864
513133618,-2860,1616,16848,-3,455,348
513135372,-4200,-2548,16344,-257,288,634
513137135,-4120,-2876,16148,-135,270,-264
513138841,-1904,-396,15116,183,539,-261
513140542,-4020,-2068,17472,105,767,346
513142237,-5576,-2124,17180,101,198,-361
513143931,-5324,-1024,16408,114,96,-445
513145627,-4384,40,16516,96,51,28
513147360,-3920,-520,17500,97,100,73
513149129,-3964,-716,17344,69,15,19
513150883,-3576,-768,16548,40,-17,-39
513152621,-4984,-436,15604,99,-90,32
513154352,-3840,-316,15716,60,43,113
513156109,-3832,-708,16108,36,144,249
513157920,-3788,-1460,16112,8,-102,21
513159628,-3076,-908,15352,125,223,-155
513161333,-4144,164,15692,124,415,-90
513163040,-4400,684,16120,-20,366,20
513164748,-6172,-192,17020,-225,-103,449
513166452,-4708,-1336,16392,-44,-109,-105
513168161,-4800,-432,16288,116,-55,-300
513169838,-4080,280,16768,11,-347,330
513171545,-4320,-1736,16864,-196,-171,522
513173251,-5508,-3504,16756,183,-296,123
513174951,-5576,-2888,16444,472,-423,-314
513176625,-4136,1568,16564,400,-622,-508
513178290,-2788,1836,16924,-245,-299,630
513180045,-2880,20,15812,-258,-269,811
513181715,-3344,-2104,14296,37,-249,-15
513183396,-3688,-1816,14728,145,17,81
513185079,-4588,-1860,14832,109,66,75
513187615,-3076,20,15972,80,-380,-266
513189326,-3052,68,16004,-98,-75,-38
513191071,-3388,12,16240,-81,-19,-114
513192761,-2920,-788,16740,-135,19,141
513194467,-5400,-3256,17180,7,-149,32
513196168,-5396,-3292,17464,226,-267,-571
513197861,-3984,1232,17064,348,-374,-934
513199562,-2260,2076,17124,-222,-511,436
513201282,-3908,-2396,16508,-253,-384,452
513202977,-3528,-3360,15984,19,-428,-305
513204681,-2560,-272,15392,380,-277,-964
513206385,-3580,2200,16024,-54,-520,87
513208083,-2908,808,15772,-274,-558,562
513209805,-2884,-2948,15588,-71,-286,-7
513211518,-2244,-308,15792,220,-374,-1050
513213302,-936,1736,15136,-146,23,22
513215066,-1580,444,15608,-357,247,444
513216782,-2356,-3112,15824,-200,220,-36
513218482,-3540,-1080,16212,119,229,-944
513220174,-4128,1372,16464,-72,98,-225
513221864,-4112,464,17100,-223,-51,247
513223578,-3696,-2492,16508,-232,-386,-174
513225270,-2216,-708,16504,47,-8,-1001
513226960,-2024,824,16812,119,78,-686
513228650,-2580,352,16580,-117,-121,142
513230341,-3912,-2124,16164,-194,-208,-48
513232081,-4032,-2132,15700,-37,-174,-453
513233972,-2684,-56,15800,271,-62,-633
513235803,-2564,1744,16308,-1,-217,-76
513237617,-2272,200,15508,-356,-131,402
513239398,-1860,-1980,14272,-71,162,91
513241136,-2464,-984,15932,100,500,-263
513242853,-3372,-228,16272,27,425,-127
513244572,-4060,236,16312,-128,246,171
513246250,-4500,-1304,16116,-131,-39,446
513247946,-4228,-1988,16056,-35,-13,119
513249639,-4276,420,16492,75,-22,-474
513251314,-2832,816,17344,-224,-135,652
513252985,-3384,-1184,16788,-275,-108,899
513254716,-4864,-3456,15496,17,-63,-50
513256417,-3772,40,15500,271,-78,-617
513258139,-2824,1112,16780,-198,52,674
513259863,-3616,-1116,16784,-349,11,1021
513261585,-4792,-4244,15316,56,-12,-43
513263310,-4104,-396,15760,344,-51,-923
513265037,-3740,1964,16308,151,-70,-509
513266732,-4224,60,16360,-326,-234,1006
513268415,-4280,-2976,15992,-107,-221,-389
513270096,-3444,-1308,16348,33,-157,-862
513271767,-3016,220,15664,-23,-112,134
513273498,-4076,-2320,15864,28,67,158
513275224,-4064,-1692,16144,189,-170,-488
513276927,-3780,-532,16316,149,-135,-412
513278600,-3836,-184,15384,86,-195,111
513280262,-2900,-220,15936,67,-110,-293
513281920,-2564,32,15852,14,-65,-188
513283575,-3236,-1324,15568,-59,197,177
513285293,-4972,-1884,16132,215,164,-441
513286998,-5660,-368,16340,205,-157,-704
513288714,-3824,1144,16852,-117,-273,0
513290425,-3792,-1940,17416,-150,-245,323
513292133,-3020,-1432,16168,191,-324,-921
513293838,-2208,688,16592,197,-213,-898
513295580,-3184,1456,16568,-163,-156,458
513297298,-4200,-2076,15760,-111,-217,219
513299011,-4076,-2144,15452,11,-306,-370
513300721,-2116,780,15800,17,-218,-569
513302427,-2448,788,15924,-182,-99,418
513304151,-2620,-2596,15244,-103,-43,117
513305896,-2712,-2288,15536,7,49,-534
513307609,-2408,972,16576,-60,320,-486
513309318,-4452,-960,17360,-192,128,637
513311033,-4904,-2532,17064,-150,-172,198
513312744,-3940,-1380,16480,-4,-336,-767
513314585,-2728,-360,16208,-54,-31,-66
513316472,-3560,-2528,16640,-17,-245,-72
513318261,-2636,-1488,16836,137,-319,-1018
513319969,-2712,316,16252,81,-268,-918
513321683,-2184,1288,15644,-80,-76,-294
513323351,-2136,792,16740,-283,-157,-212
513325015,-2376,532,15736,-327,-179,-143
513326682,-2068,-760,15264,-235,13,-142
513328449,-1520,-1524,14312,0,233,-167
513330247,-2460,-1320,15528,95,358,-352
513331995,-2752,272,16620,-10,481,-253
513333779,-3028,188,16732,-36,413,98
513335500,-4104,-1040,16824,-21,256,-113
513337238,-3604,1040,16872,-63,231,-509
513338950,-3396,1460,16744,-157,326,-60
513340629,-3948,-1876,17672,-204,100,575
513342299,-5004,-2820,16576,72,-259,-434
513343972,-4968,-1212,15492,92,-305,-622
513345681,-3004,68,15908,39,-113,1
513347432,-2692,-500,16788,-136,-267,89
513349123,-1468,-1000,15708,-124,-38,-217
513350820,-1612,-560,15228,-36,277,-313
513352513,-2804,560,15064,-114,477,161
513354208,-4712,-1588,15624,-213,44,408
513355901,-3592,-2284,15636,-171,71,-7
513357653,-2952,148,16416,-32,445,-429
513360256,-3152,-1828,16044,-178,199,642
513362017,-4256,-2160,16860,34,289,-362
513363765,-4320,-708,16772,118,204,-457
513365496,-5548,-352,15828,4,-287,417
513367228,-3268,-1624,16192,115,-119,-108
513368940,-3000,-640,17476,108,88,-403
513370626,-1812,-1116,16216,131,-245,465
513372299,-3924,-1808,15292,123,178,-243
513373970,-4124,-1072,15380,170,125,-300
513375674,-4348,-380,15752,75,52,-154
513377365,-3260,-300,15636,31,-99,-181
513379111,-3152,320,16396,-97,108,-285
513380794,-2716,-8,15564,-147,125,8
513382479,-3320,-2444,15380,-107,396,-123
513384161,-3392,-496,16892,72,460,-978
513385845,-4632,1080,17320,-74,490,-614
513387526,-6008,-1172,15964,-226,-110,498
513389258,-4688,-2160,16176,93,-164,-972
513390961,-3644,292,16608,151,-123,-1245
513392671,-2344,1444,16816,-94,128,214
513394381,-4524,-2924,16640,-59,-38,201
513396105,-4904,-1400,15408,113,-371,-1000
513397815,-3956,176,15304,124,-248,-672
513399546,-2900,404,16484,62,-41,-74
513401256,-2844,-616,16728,-87,-363,-119
513402966,-1620,-916,14648,-70,81,-481
513404675,-1884,140,15080,38,399,-652
513406385,-3272,928,16796,-76,241,123
513408095,-4256,-2064,17396,-188,-67,105
513409807,-4604,-1584,16492,-148,-157,-548
513411518,-2172,1312,16188,-29,-37,-243
513413239,-2968,-1112,16108,-160,-168,744
513414989,-2292,-3252,16456,-22,118,-431
513416756,-3012,-1268,16080,111,172,-872
513418498,-2376,892,16132,0,127,20
513420295,-4332,-1148,16112,-97,99,214
513421978,-3364,-868,16320,-73,-129,-544
513423641,-2096,444,15372,-148,-63,-544
513425307,-1652,356,16480,-269,307,135
513426971,-2292,-2264,15320,-131,251,79
513428635,-2312,-2744,15436,-23,469,-368
513430345,-4040,-576,15508,5,237,-549
513432061,-3120,248,16480,-101,362,-147
513433774,-3996,8,16876,-110,393,58
513435483,-3440,-784,17680,-143,-16,-147
513437195,-2872,964,15528,-292,-175,-326
513438924,-1412,-628,15196,-260,375,484
513440738,-1708,-2508,15968,-114,542,339
513442435,-3684,-2308,16476,-55,441,-357
513444121,-4424,-1164,14260,21,75,-154
513445804,-2704,-672,15252,66,412,-240
513447483,-3664,1140,17268,-101,385,-22
513449172,-2552,-1004,17328,-316,108,490
513450929,-3756,-2440,15508,-74,368,-104
513452636,-3524,-2152,16008,101,397,-396
513454353,-5032,-396,16364,167,102,-133
513456096,-3084,-1380,16512,-34,-32,-14
513457807,-3000,-932,17356,-56,175,-368
513459514,-1704,412,16220,22,-4,-13
513461261,-2788,-972,15664,-5,315,303
513463000,-3028,-1168,16328,43,469,-335
513464739,-3932,256,16844,-33,424,-454
513466461,-3584,392,15100,-125,-12,418
513468180,-3484,-1248,15460,-96,359,153
513469892,-3236,-1452,16216,-81,395,-26
513471608,-2956,-1140,16188,-143,332,-231
513473276,-3228,-564,16064,-76,531,-109
513474924,-4856,-1220,16508,-105,544,83
513476594,-5512,-2196,16440,-66,358,117
513478260,-5056,-2284,16192,39,19,-613
513479905,-4164,-1116,16740,80,105,-728
513481605,-4272,-724,16728,53,115,-69
513483279,-3500,-1284,16388,101,164,-583
513484961,-3488,1160,16604,-34,106,-591
513486645,-3460,1088,16332,-100,206,-42
513488323,-5676,-1616,15600,30,82,146
513490003,-3352,24,16496,231,-183,-980
513491742,-2768,2192,16608,62,-84,-643
513493445,-2160,308,16184,-228,108,881
513495156,-3956,-2508,15332,-20,204,-32
513496863,-4120,-1824,15420,97,113,-451
513498572,-3904,492,16292,-16,158,-278
513500280,-3716,-168,16300,-139,167,271
513502010,-4052,-1596,15872,-190,11,-74
513503720,-3604,-1568,15848,-151,-22,-346
513505429,-2848,-1188,15932,-89,242,-252
513507136,-3660,-1872,16320,23,243,-243
513508844,-3744,-1608,16048,4,139,-510
513510554,-3220,420,16356,-27,167,-673
513512268,-2948,832,16692,-159,71,40
513513969,-3392,-1524,15632,-150,37,-9
513515673,-3472,-1536,15544,-15,31,-384
513517418,-1856,684,16180,66,174,-491
513519144,-1608,1192,16628,-235,235,270
513520839,-2524,232,16120,-293,237,447
513522614,-2836,-780,15412,-241,321,-82
513524298,-2444,808,16124,-199,384,-46
513525972,-2764,-1508,16124,-284,371,678
513527642,-3536,-2848,16060,-181,364,248
513529314,-3372,-748,15608,56,337,-484
513531834,-2668,-132,16284,-129,371,540
513533596,-3800,-2836,17032,-187,341,321
513535289,-3136,-1156,16500,8,223,-563
513536987,-2444,432,16120,-139,409,301
513538702,-3304,-872,16432,-247,521,535
513540430,-3540,-2460,16092,-83,506,-99
513542138,-3676,-1336,16204,153,398,-333
513543868,-3540,184,16240,119,192,-141
513545609,-2868,352,16400,-18,279,107
513547309,-3096,-864,16208,-100,306,264
513548992,-2908,-732,16148,31,230,-275
513550675,-2920,-164,15868,58,280,-96
513552356,-3748,-1484,15888,42,432,354
513554094,-3988,-1460,15668,164,200,-364
513555789,-2984,0,15976,80,268,-582
513557487,-2928,1120,16116,-225,503,404
513559179,-4000,-3264,16520,-139,428,572
513560877,-4284,-2600,15644,170,336,-864
513562610,-4172,-368,15616,173,377,-932
513564341,-4324,680,16424,-38,385,315
513566042,-4868,-2248,16972,-38,120,180
513567727,-4796,-2092,16620,78,-95,-399
513569398,-2728,772,16192,97,86,-475
513571068,-3148,400,16788,-57,405,455
513572739,-4032,-1004,16532,-47,276,499
513574411,-4444,-2512,15956,200,92,-108
513576109,-4296,-652,16272,325,351,-430
513577819,-4556,-344,16228,154,129,525
513579633,-4736,-2168,16296,120,-9,635
513581528,-3708,-2032,16676,276,-42,-716
513583378,-3124,1856,16276,60,202,-100
513585138,-4936,-1848,15600,-168,47,892
513586828,-5540,-4160,16868,250,-77,-674
513588514,-5484,-2564,16504,469,-206,-1000
513590192,-3792,88,15684,370,-230,-395
513591863,-3596,-916,16676,198,-141,-91
513593541,-3128,-1212,16564,242,-131,-324
513595273,-2452,588,16516,320,59,-678
513596974,-3364,2580,16236,57,14,-22
513598696,-3964,1684,16568,-69,6,499
513600411,-4924,-1256,16672,21,-350,341
513602120,-2976,24,16144,120,-429,-279
513603864,-3076,192,15428,61,-289,475
513605655,-2808,-664,15560,82,-241,364
513607362,-2232,-708,15996,44,-105,158
513609065,-3124,-1748,16084,52,53,287
513610765,-4588,-1360,16428,191,136,-171
513612464,-4816,-956,16716,197,-10,-174
513614167,-3760,-560,16496,59,-236,-155
513615872,-3364,-692,15560,4,-203,-278
513617568,-2500,-444,15688,42,-76,-362
513619306,-2844,1140,16164,-60,82,-382
513621021,-2884,1024,16012,-413,-46,186
513622705,-3344,-292,15720,-457,64,335
513624386,-4204,-1628,16056,-121,127,-252
513626101,-4352,1140,17052,-117,-168,-420
513627785,-2580,-476,15960,-425,-244,644
513629466,-2464,-2412,15828,-358,50,327
513631147,-3248,-1752,16852,128,138,-718
513632826,-2964,728,16700,-16,106,-7
513634505,-4892,-220,16328,-227,-7,608
513636260,-4780,-4216,15860,13,-369,70
513637960,-3656,-952,16884,343,-333,-958
513639692,-3588,828,16756,280,-449,-469
513641419,-2044,420,16176,-114,-448,184
513643225,-1804,-1368,15368,-111,-198,33
513645023,-1076,-1944,14728,166,243,-451
513646778,-5140,180,15712,135,129,-254
513648494,-3816,-108,15528,47,-274,91
513650178,-3108,-712,15728,-17,62,-149
513651852,-1936,656,16556,-2,58,-225
513653525,-2312,812,16184,-32,189,27
513655199,-2768,-644,15960,-126,174,341
513656905,-4724,-2824,16264,-90,201,112
513658714,-5208,-1308,16176,219,44,-750
513660551,-4048,608,16304,249,15,-618
513662397,-3532,480,17728,-146,-137,617
513664423,-3124,-3816,16760,-28,-31,279
513666257,-4120,-1636,15628,408,138,-895
513668047,-4820,1424,16336,159,-142,-184
513669739,-5148,-208,16392,-157,-590,255
513671493,-3684,-1136,15972,-80,-619,-36
513673259,-2204,-332,16144,103,-243,-467
513674973,-3072,20,16480,59,-276,-71
513676655,-2812,-528,15848,12,-235,122
513678329,-3752,-1484,15504,108,-151,-126
513680037,-3012,1060,16700,65,-151,-410
513681724,-4000,1896,16856,-315,-101,407
513683408,-3908,544,16520,-380,-282,692
513685118,-1872,-2608,14904,-331,-141,461
513686843,-3024,-2600,15692,-1,463,-380
513688545,-3348,-1576,16252,145,486,-320
513690237,-5308,-1052,16404,83,-73,214
513691937,-4932,-1984,15844,12,-328,-81
513693630,-4400,-1784,15484,77,-259,-299
513695326,-3840,-108,16896,172,-173,-564
513697018,-2268,-152,17160,20,-487,66
513698711,-4096,-2248,16128,29,-221,-95
513700405,-4356,-1936,14876,216,-262,-550
513702107,-3388,1392,16436,223,-59,-715
513704725,-2480,1184,16280,-359,-436,521
513706451,-1900,-504,15460,-315,-260,349
513708161,-2340,-324,14788,-77,121,-495
513709873,-2888,1052,15700,-199,151,138
513711575,-3920,448,15968,-368,146,381
513713276,-4524,-2224,16384,-243,-207,344
513714970,-4116,-1880,16440,20,-130,-554
513716680,-3404,964,16640,-124,-315,-186
513718414,-2476,120,16740,-215,-308,509
513720197,-2916,-3348,16704,-215,-166,234
513721919,-2940,-2396,16108,100,-55,-779
513723585,-3672,-640,16380,132,20,-785
513725242,-4500,788,15944,-125,-570,89
513726900,-2364,-1432,15320,-235,-433,-170
513728559,-1344,-1028,15656,-139,-73,-604
513730268,-2268,1192,15712,-167,129,-405
513731964,-2472,-956,14628,-246,-71,534
513733702,-2636,-3528,15596,14,316,-104
513735411,-3132,-2396,15860,167,432,-670
513737120,-3544,1192,16468,153,219,-237
513738829,-4208,288,16652,-227,-65,424
513740651,-3376,-1224,15912,-213,23,37
513742400,-2848,-1980,15344,-8,111,23
513744113,-2760,-2192,16988,190,350,-402
513745808,-4856,-1180,16780,90,-164,-173
513747505,-4220,-1592,15844,99,-165,-67
513749200,-4092,-684,16056,141,-38,-528
513750920,-2540,420,17184,-5,-151,-251
513752619,-2344,-44,16900,-85,-64,-88
513754329,-2884,-968,15628,3,43,-230
513756045,-3228,-788,15452,43,76,-368
513757742,-4328,584,15772,4,53,-503
513759437,-3496,876,16464,34,-105,-278
513761208,-2276,856,16600,-145,-159,13
513762922,-2364,-876,15776,-165,-86,211
513764712,-2872,-444,15616,25,291,-350
513766481,-3280,708,16424,-8,219,-238
513768230,-4516,-252,15504,-211,-256,728
513769985,-2824,-2612,15688,-47,77,2
513771804,-3080,360,17056,4,229,-408
513773487,-2896,988,15968,-103,50,279
513775164,-2864,-3096,15996,-173,448,715
513776836,-4772,-3376,16224,136,251,-633
513778502,-4496,-1660,16084,271,19,-730
513780174,-4336,288,15644,146,-120,-6
513781892,-3920,-824,17380,-16,-121,4
513783590,-3608,-1120,17376,-38,-334,-188
513785314,-2236,-380,15620,65,-273,-429
513787036,-2408,1228,16220,69,71,-170
513788748,-3496,-716,16028,-151,56,573
513790469,-4176,-1676,15468,-158,-43,164
513792251,-3340,712,15816,49,135,-707
513793950,-2632,2936,16820,-229,234,569
513795654,-3092,-2840,15588,-396,132,1145
513797358,-4188,-4396,15520,-174,246,217
513799055,-4316,-92,16600,193,220,-953
513800773,-4964,1676,16864,-187,3,812
513802547,-5504,-1088,16804,-313,-224,1262
513804255,-5084,-3944,17228,-144,-303,-463
513805972,-3496,288,16688,90,-345,-725
513807683,-3256,-472,16416,-92,-241,563
513809391,-3904,-2468,16384,-145,-229,403
513811103,-3952,-1452,15704,-20,-280,-931
513812843,-2548,2076,14776,-39,-364,-214
513814570,-1824,1580,15460,-194,-245,346
513816277,-2392,-2080,15956,-369,71,521
513817984,-2860,-2444,14476,-2,126,-590
513819687,-1772,1576,15544,87,438,-486
513821440,-2304,1844,16860,-91,538,293
513823280,-4708,-2244,16924,-254,285,700
513824970,-4456,-1908,16088,94,-47,-836
513826629,-2872,2584,17688,-108,-2,-361
513828288,-3192,2004,17360,-347,-27,622
513829944,-4016,-4660,16648,-258,-100,588
513831595,-4540,-2500,16196,239,-522,-1495
513833288,-3040,876,15384,228,-583,-1229
513834991,-1328,1244,15576,-157,95,536
513836717,-2516,-2432,16812,-238,43,36
513838441,-2356,-2056,16392,-122,-110,-643
513840163,-1244,1776,14704,-154,322,-389
513841882,-2236,-272,15296,-323,589,750
513843707,-3224,-3076,15364,-92,343,-232
513845445,-2896,-2384,15744,66,330,-736
513847159,-2660,1176,16276,110,376,-405
513848877,-3728,-116,16956,-142,143,669
513850590,-3996,-2904,16252,-47,-49,0
513852282,-3552,-1796,16712,57,22,-691
513853978,-1792,1316,17148,100,-56,-147
513855691,-2132,-776,17076,-133,212,627
513857397,-2956,-2100,16132,-163,307,350
513859088,-3408,-1404,15740,25,354,-478
513860820,-2524,1024,16100,-46,325,-72
513862587,-3120,-820,15772,-237,249,585
513864376,-3216,-2092,15568,-152,226,298
513866105,-2664,-724,15320,29,218,-499
513867791,-2456,1116,16132,-139,354,174
513869466,-3312,0,16632,-240,430,701
513871145,-5356,-3148,16568,-55,173,159
513872824,-2936,-184,16272,154,129,-944
513874496,-1948,1936,16840,26,369,-481
513877379,-3792,-2836,16632,-205,369,815
513879143,-4792,-2976,15288,141,294,-638
513880872,-4344,1012,15988,108,108,-368
513882590,-4448,-220,16556,-102,147,561
513884384,-5028,-1356,16204,-135,-128,245
513886085,-2696,-924,15752,-64,-196,-421
513887770,-2656,72,15396,-48,261,37
513889452,-2948,-348,15528,-18,297,213
513891135,-4844,-1620,15980,-32,165,36
513892818,-4016,-64,16524,-66,362,-419
513894552,-3464,928,16452,-128,263,381
513896256,-3316,-676,16660,-169,253,606
513897970,-3048,-2120,16004,-48,405,-157
513899680,-5564,-404,15824,12,407,-269
513901387,-5244,-120,16032,32,92,-28
513903096,-5676,-116,17768,-142,-81,92
513904828,-4812,-1508,15412,-173,-589,194
513906538,-3828,-1788,16164,19,-313,-399
513908250,-2848,-724,17020,73,-391,-624
513909968,-1156,656,17080,-153,-18,27
513911685,-3652,-2332,14928,-191,50,320
513913395,-3536,-2960,15688,-49,49,-434
513915172,-3216,776,15436,125,-166,-805
513916857,-1396,1112,15528,-151,288,257
513918530,-2380,-1256,15620,-181,214,155
513920214,-2164,-896,14860,-189,144,-343
513921930,-1700,1172,14708,-236,462,-43
513923747,-2988,-1424,16652,-304,760,675
513925653,-4628,-2928,16748,-87,342,-313
513927375,-5004,-1300,16552,-8,143,-787
513929049,-2484,2060,17152,-175,240,-33
513930713,-3492,-1280,17508,-422,324,768
513932363,-3732,-3648,16792,-244,128,405
513934015,-3116,-2236,16116,128,181,-1067
513935724,-2968,324,16264,38,182,41
513937417,-3128,-1052,15980,-51,121,414
513939132,-3536,-2008,15696,-37,133,-459
513940843,-2108,1000,16136,-11,98,-666
513942560,-1384,1528,16388,-233,238,193
513944296,-1696,412,16112,-312,311,352
513946108,-1660,-1872,14744,-116,565,48
513947818,-2880,-1152,16004,65,640,-277
513949512,-3120,-144,16248,22,287,16
513951209,-2696,-104,15908,-41,381,92
513952904,-2780,-272,15996,-99,458,132
513954599,-2276,36,16772,-173,395,30
513956295,-1936,-256,16492,-207,466,254
513957999,-4228,-1920,16688,-219,806,337
513959709,-5308,-2612,15936,-7,229,-82
513961423,-4140,-1848,15604,0,240,-419
513963271,-3164,376,16768,-100,403,-116
513965032,-2820,-1704,17160,-145,383,414
513966886,-3928,-2616,15308,8,347,-361
513968598,-4052,-208,15348,105,513,-586
513970261,-4640,604,16088,120,501,-255
513971922,-4540,520,16588,-60,211,87
513973586,-3096,-536,15844,-152,126,104
513975245,-3180,-740,15476,-102,310,-38
513976948,-2460,-928,16260,166,467,98
513978649,-4816,-896,15740,92,437,103
513980364,-4952,-1156,15692,62,336,138
513982077,-5592,-832,16652,101,387,-71
513983795,-4672,-28,15796,114,-44,181
513985507,-4060,-1640,16344,-30,298,8
513987221,-3996,-1428,17276,-25,398,-370
513988940,-3404,572,16172,-86,283,-225
513990652,-5072,-1792,16704,-180,418,515
513992366,-6484,-2776,16976,-158,251,31
513994081,-5240,-1204,15412,67,-111,-685
513995796,-3036,712,15980,49,-59,-241
513997581,-1908,-228,17640,5,161,203
513999301,-2864,-544,16676,-21,271,114
514001014,-5200,-1200,15156,-18,-6,170
514002723,-4624,-1856,15792,133,-79,-81
514004499,-3392,-500,16816,261,45,-323
514006329,-2780,176,17184,207,-17,-138
514008203,-2272,456,15980,-30,-6,55
514009952,-3052,-244,15512,-177,286,331
514011670,-3684,-2692,15960,48,384,190
514013376,-4736,-2564,16352,135,265,-336
514015098,-4704,-36,16224,124,-124,-503
514016883,-3412,524,16744,-57,-26,197
514018662,-2888,-2280,16700,-6,-61,155
514020427,-2508,-1544,15780,172,29,-619
514022134,-2648,-660,16340,243,149,-490
514023832,-2504,-128,17788,266,130,-231
514025584,-3824,680,16784,68,-57,-263
514027293,-3780,920,15992,-43,-163,-105
514029036,-3120,440,15656,-111,-40,-39
514030714,-1616,-308,16268,-94,-118,70
514032392,-1616,-1304,15328,-86,-33,113
514034064,-1952,-1292,14876,64,372,-476
514035742,-2740,916,15668,65,409,-184
514037422,-3840,-488,16336,-232,203,542
514039141,-4076,-2068,16568,-200,131,373
514040844,-3972,-1472,17052,54,243,-577
514042768,-3600,540,16924,-20,-22,-154
514044542,-2664,-1432,16256,-166,-24,293
514046309,-2072,-2944,16760,-69,255,186
514048090,-3904,-2984,16648,266,194,-669
514050773,-3872,2020,16380,68,-208,-234
514052490,-3416,-584,15780,-173,-145,625
514054178,-3224,-2136,15696,-93,-141,253
514055865,-2416,-1136,15288,189,-51,-630
514057551,-2580,660,15808,92,309,-8
514059234,-2908,28,15592,5,375,364
514060923,-4464,-1036,16152,-43,302,25
514062641,-3748,36,16716,1,286,-223
514064392,-4476,972,17560,-96,224,378
514066121,-4832,-356,16616,-191,-73,780
514067860,-4716,-3648,16296,26,-47,197
514069588,-4588,-536,16752,341,-15,-709
514071367,-5020,1276,17336,23,-199,457
514073048,-5656,-240,17496,-151,-510,833
514074718,-3836,-2908,16480,-99,-490,92
514076383,-3848,-1116,16364,254,-167,-485
514078053,-3644,228,15920,280,-280,-363
514079723,-2952,480,16092,-112,-165,317
514081432,-4396,-1764,15528,-138,-84,324
514083135,-4720,-2180,15080,44,-201,-64
514084854,-4060,-512,15112,254,-328,-532
514086563,-3452,960,16184,-42,-324,80
514088294,-2712,56,15656,-144,-354,363
514090017,-2672,-1664,15780,-24,-58,-35
514091753,-3392,44,16184,107,0,-513
514093490,-4940,984,16796,-97,-104,218
514095215,-4484,-576,16616,-129,-314,543
514096930,-4556,-2920,16300,14,-282,-285
514098638,-3512,340,15972,163,-307,-827
514100394,-1792,952,16956,-116,35,295
514102133,-3684,-572,16776,-272,-14,502
514103842,-4684,-3156,15648,29,-364,-257
514105558,-4344,352,16468,228,-204,-1091
514107277,-3616,2564,16748,66,-388,-605
514108988,-2756,516,16112,-450,-473,921
514110704,-2944,-3664,15640,-190,-240,-146
514112428,-2260,-140,16048,183,-108,-996
514114211,-2280,1684,15596,74,-123,-415
514115955,-2832,-268,15868,-298,-77,630
514117701,-3820,-2436,16532,-53,-103,-283
514119394,-2764,0,16128,112,-277,-443
514121091,-2884,672,15664,20,-201,-50
514122813,-2800,-1000,16448,-144,-170,339
514124506,-2552,-1912,16272,-12,-150,-216
514126201,-2548,-1364,16048,72,-115,-356
514127895,-2808,748,16716,-12,-5,-365
514129588,-3636,672,17304,-269,-95,140
514131281,-3596,-416,16512,-273,-316,266
514133038,-3056,-2216,15900,-87,-182,-308
514134743,-2804,-272,16312,90,-149,-732
514136456,-1904,684,15616,-105,-247,96
514138164,-2212,-656,15656,-220,-207,327
514139873,-2360,-2652,15344,-47,12,-195
514141586,-2264,-808,15944,195,169,-773
514143321,-2372,1656,16368,-100,80,-214
514145058,-2628,1124,15788,-297,72,249
514146795,-2632,-2200,15844,-196,372,146
514148519,-3672,-1528,16892,158,274,-753
514150235,-4184,-56,16564,125,84,-661
514151990,-3736,148,15832,-106,-52,250
514153826,-2800,-2236,16640,-16,44,29
514155545,-3004,-400,16416,97,-92,-629
514157240,-2344,752,16244,45,14,-333
514158931,-3700,-404,16352,-61,216,450
514160623,-4740,-1852,16036,-8,-19,-173
514162310,-3736,172,16032,45,-63,-403
514164050,-3096,1580,16172,-76,95,-259
514165746,-2840,604,16872,-285,-23,809
514167454,-3292,-3368,15224,-139,-131,446
514169201,-3400,-3264,14768,42,105,-228
514170911,-4332,-60,15936,196,279,-451
514172594,-4520,320,15680,-83,-335,426
514174287,-2956,-2332,16228,-93,70,118
514175972,-3472,-2120,17068,45,207,-269
514177668,-3208,-1052,16044,123,86,-118
514179348,-4328,-1152,16576,75,165,-34
514181025,-4840,-896,16992,25,115,-140
514182702,-5196,-876,16596,-15,-118,-42
514184435,-4328,-780,15668,73,-295,-330
514186139,-3680,-16,15804,53,-217,-494
514187850,-2556,-136,17120,-87,-89,155
514189571,-3528,-2092,15708,18,-6,-78
514191286,-4976,60,15972,141,-135,-757
514192995,-4692,1344,15944,55,-243,-447
514194726,-3388,332,16196,-166,-101,418
514196450,-3104,-2060,16420,-72,-307,-169
514198163,-2576,-1360,15432,39,-263,-620
514199926,-2368,888,15540,-34,412,-217
514201639,-4288,-1388,16428,-96,95,499
514203347,-4512,-1916,16340,-52,-133,-610
514205082,-4096,-196,16124,-17,-100,-749
514206794,-3728,1040,16744,-142,-134,228
514208503,-2944,-2048,16456,-154,-342,101
514210217,-2396,-2256,16720,-77,-184,-411
514211985,-2816,-248,16440,-72,-33,-450
514213828,-3932,-696,16412,-36,-76,21
514215667,-4112,-1672,16328,61,-506,-320
514217375,-1500,452,16028,-3,-179,-654
514219068,-1420,1224,16444,-60,-62,-193
514220751,-1580,-728,16032,-186,-178,278
514223366,-2052,-1000,15372,-98,238,-363
514225094,-1940,-612,15528,-72,293,-260
514226796,-3464,-632,15960,-86,300,-66
514228483,-4368,-1312,16324,-42,15,-304
514230163,-3672,-752,16880,21,-12,-532
514231878,-2660,404,16072,-118,-18,-212
514233561,-2168,-412,16484,-226,144,-183
514235239,-2556,-864,16648,-71,239,-280
514236997,-2644,-916,16592,-22,225,-291
514238706,-4520,-1004,15604,-43,-133,-113
514240419,-3228,-1000,15412,32,22,-461
514242127,-3148,-168,16524,24,150,-494
514243837,-2796,-136,16424,18,-132,-49
514245557,-1716,40,16228,-42,-137,-323
514247358,-1412,888,15052,-176,454,5
514249087,-1592,-216,15412,-157,608,482
514250808,-3656,-2036,16088,-85,518,-89
514252515,-4216,308,16024,-103,218,-325
514254215,-3692,168,15492,-134,351,421
514255915,-3944,-860,16024,-154,279,344
514257636,-3724,-1200,16784,-98,198,-235
514259330,-3768,-620,16792,-153,132,201
514261026,-3912,-1484,17004,-87,144,335
514262723,-4764,-2052,16404,100,-48,-134
514264415,-3316,-464,16408,-7,8,-216
514266109,-3284,-292,17072,-31,29,99
514267896,-2392,-1468,16408,-1,-90,195
514269758,-3452,-1452,14760,49,95,-116
514271573,-3752,-564,15056,86,102,-235
514273289,-3016,680,16284,-68,64,11
514274983,-3176,564,16116,-189,17,236
514276668,-3352,-1148,15628,-209,150,243
514278401,-3004,-1040,15412,25,328,-226
514280085,-2704,-612,16164,23,386,-114
514281764,-4000,-1780,16212,-16,426,348
514283437,-5288,-1376,16024,151,272,-417
514285265,-4760,1052,16796,4,27,-116
514286944,-4920,812,17616,-169,-135,329
514288666,-3512,-1712,16324,-197,-214,250
514290366,-3564,-1220,16204,57,71,-443
514292083,-2868,-456,16200,11,40,-265
514293796,-4296,-1348,16064,-102,203,189
514295506,-4076,-1592,16444,73,18,-383
514297215,-3608,776,16788,-49,143,-334
514298948,-3972,880,16328,-160,-75,36
514300658,-1664,-1000,15884,-85,15,111
514302366,-3460,-456,16828,-22,246,-368
514304077,-3808,324,15936,-50,-45,-151
514305786,-4364,-828,15256,-164,-28,325
514307494,-3596,-868,17032,35,-237,-482
514309226,-1808,1292,17128,-124,-131,-106
514310940,-2524,876,16480,-273,-75,371
514312661,-2192,-1928,15416,-197,52,269
514314470,-3304,-1396,15704,-29,100,-388
514316260,-2544,-420,16348,-97,118,-7
514317980,-3680,-816,15888,-155,208,187
514319785,-3408,-1900,15548,-22,30,-253
514321470,-2612,-360,16100,-83,41,-472
514323141,-2260,-280,15800,-114,112,-129
514324805,-2700,-1708,15828,-58,442,-80
514326468,-3628,-1776,16172,66,265,-636
514328140,-3420,1036,16988,25,226,-715
514329857,-3256,1324,17108,-68,318,-190
514331560,-4344,-556,16236,-147,138,-172
514333283,-2400,324,15700,-136,0,-693
514334994,-1796,1116,15992,-198,208,-529
514336702,-2288,4,16036,-253,432,263
514338411,-4008,-2104,14960,-87,125,-153
514340147,-3224,-28,15596,-39,256,-619
514341860,-3040,644,16620,-102,337,-158
514343567,-2812,-912,17056,-154,211,334
514345277,-4024,-712,16492,-163,73,-373
514347014,-2704,132,15840,-197,107,-333
514348766,-1772,-640,16416,-233,591,501
514350590,-3628,-3984,16500,-49,259,153
514352386,-4920,-1504,15796,176,167,-944
514354109,-3208,1276,15624,40,-6,71
514355813,-2752,796,16216,-146,28,349
514357504,-2688,-1416,16848,-257,-37,224
514359186,-1860,-1488,15352,-88,138,-73
514360878,-2084,-1432,14728,-21,316,28
514362615,-3272,-2252,14460,180,290,98
514364392,-2284,-660,16136,201,746,-527
514366187,-2852,1328,16556,-87,743,135
514367927,-2984,340,15820,-164,614,558
514369658,-3548,-2200,15976,-39,807,86
514371410,-4128,-352,17252,97,826,-519
514373117,-5004,720,16616,-146,305,276
514374790,-5212,-676,16396,-187,115,494
514376455,-5392,-1604,17180,24,-92,-490
514378117,-2296,456,17152,46,-87,-295
514379773,-3120,104,17028,-57,-3,191
514381439,-2824,-1932,16420,42,-111,-89
514383132,-3208,484,16472,139,225,-514
514384829,-3480,1320,16056,52,61,-36
514386532,-2640,-424,15240,-188,123,450
514388233,-3556,-1212,15468,-98,249,-136
514389927,-2932,-328,15188,-41,141,-303
514391621,-1468,896,14352,-241,303,287
514393325,-2084,-1496,16124,-359,894,558
514395882,-4784,-2124,15580,-162,771,119
514397607,-4988,-1884,15812,-4,323,-62
514399325,-4468,-1092,18076,-4,651,-155
514401036,-5000,-428,18304,-29,438,-85
514402746,-3100,-1156,15860,-109,-86,329
514404444,-3852,-2948,17664,51,570,-114
514406136,-5044,-632,17324,216,-33,-534
514407830,-4356,116,15860,140,-172,-151
514409526,-4224,-852,16488,33,-113,-104
514411226,-2240,1092,16696,-68,-145,-439
514412984,-1932,920,15676,-106,-17,123
514414725,-2080,-1752,15064,-82,163,119
514416418,-2580,-1616,15068,91,410,-584
514418100,-2388,1020,15144,110,423,-531
514419782,-2628,1480,15680,-11,449,-102
514421464,-3972,244,15712,-303,374,238
514423212,-3668,-1428,15312,-190,426,-23
514424920,-3708,-1368,15200,-41,456,-259
514426634,-2508,232,16776,-1,559,-497
514428344,-4364,-416,17416,-234,450,396
514430053,-4240,-1896,17260,-81,197,-477
514431761,-4488,268,16856,-81,114,-939
514433494,-3192,1720,16804,-297,-19,236
514435205,-3596,-2056,16840,-296,161,390
514436914,-3652,-2708,16740,-103,43,-194
514438622,-2144,-480,15488,47,-124,-515
514440333,-2456,-1084,15096,-115,351,481
514442043,-2964,-3280,15272,113,396,-103
514443777,-2748,-2340,16232,195,343,-620
514445490,-2160,920,15708,19,127,-352
514447201,-1988,524,15444,-209,625,386
514448939,-2868,-1264,15936,-159,610,622
514450692,-3524,-3932,15260,81,452,-235
514452420,-4364,-1336,16212,344,447,-700
514454213,-3384,28,17072,253,320,63
514455918,-3176,-360,17348,70,293,155
514457616,-2932,-1320,17068,13,207,-36
514459310,-2548,-504,17252,267,406,-242
514461013,-3748,-696,16468,251,404,285
514462710,-5716,-1548,16516,256,186,278
514464411,-3920,-756,15132,325,-197,-339
514466099,-2716,1204,16380,211,213,66
514467780,-2640,576,17088,145,82,481
514469463,-2256,-1208,15908,85,271,182
514471175,-3552,-512,15952,122,667,-45
514472914,-4836,156,15968,91,522,-3
514474625,-4728,-324,16032,32,195,248
514476295,-4536,-720,17588,-36,402,114
514477951,-4696,-720,16944,-46,156,129
514479601,-3808,-1912,16100,145,38,137
514481250,-4476,-1200,16828,198,228,-247
514482900,-4760,-272,16936,161,204,-172
514484592,-6712,-784,16732,89,-352,287
514486285,-4368,-1820,15764,226,-556,-271
514487997,-3144,528,17060,291,-170,-501
514489753,-2520,928,16908,222,-215,-41
514491466,-2784,-532,15620,-94,-54,411
514493178,-5080,-1792,15264,52,57,-205
514494911,-4776,-960,15812,202,-29,-463
514496620,-4180,472,15452,58,-152,-4
514498342,-4132,-1496,16176,-120,-178,195
514500074,-3192,-1260,15864,176,-201,-529
514501787,-2548,-384,15676,204,-76,-443
514503499,-4108,-1156,16176,40,61,171
514505228,-5396,-1660,17208,44,-163,-445
514506956,-4584,112,16368,147,-408,-523
514508701,-3380,548,17028,50,-412,-339
514510435,-2928,-204,16412,-171,-306,87
514512154,-3520,-1828,16280,-5,-148,-249
514513877,-3464,-1752,16340,109,-216,-476
514515768,-4080,316,15824,201,-293,-677
514517496,-3760,2108,16100,-23,-426,-133
514519163,-2424,460,15660,-287,-335,435
514520835,-2772,-736,15856,-289,-305,322
514522505,-2636,-1088,15200,-38,-295,-270
514524171,-1840,776,15156,-56,203,-139
514525889,-2336,444,16328,-201,279,345
514527597,-4236,-2416,17228,-258,34,281
514529309,-4788,-900,16904,52,-218,-709
514531029,-3500,1076,16940,-137,-340,101
514532744,-3272,-60,17268,-331,-371,476
514534454,-2568,-2488,16588,-260,-337,-169
514536214,-2280,-604,16588,41,-275,-562
514537932,-2572,-440,15808,-99,-206,236
514539631,-3528,-1760,15572,-144,-275,321
514541333,-2732,-2248,15364,110,-244,-604
514543033,-2340,1460,16388,130,-249,-582
514544734,-1628,2336,16764,-54,-324,-54
514546500,-1796,504,15536,-406,-216,749
514548277,-2148,-3012,14360,-163,21,186
514550055,-1488,-1680,14812,227,326,-546
514551809,-1748,-204,16004,129,463,-387
514553536,-3052,-304,16532,-70,389,345
514555270,-4408,-1900,15976,-61,229,42
514557002,-4216,-1084,16648,58,90,-446
514558700,-3564,-132,16984,49,119,-496
514560387,-3716,-116,17096,-137,-73,209
514562079,-3712,-2964,16520,-50,-60,-43
514563768,-4496,-2712,16304,47,-17,-562
514565465,-3784,-480,15932,226,-143,-632
514568190,-2640,-432,16676,-50,-236,-4
514569911,-2812,-1228,16380,-65,-168,-32
514571585,-3256,-1704,15760,234,-68,-515
514573300,-3228,1244,15444,271,-99,-742
514575034,-2804,1812,16324,-198,-23,365
514576728,-3092,-432,16376,-281,22,667
514578403,-3432,-1988,16148,102,3,-672
514580078,-2584,2824,15812,-25,50,-688
514581750,-2032,2992,16136,-279,264,314
514583425,-4436,-2320,16028,-369,178,888
514585104,-4260,-3944,15664,113,-2,-730
514586778,-4508,-1628,16032,223,127,-1003
514588450,-4668,1436,17088,-13,93,120
514590150,-4412,-1704,17156,-235,-251,567
514591864,-4064,-2812,16888,-191,-251,2
514593579,-3744,-1476,16624,62,-134,-592
514595300,-3312,-348,15780,116,-51,-66
514597019,-5460,-2320,16216,80,-298,135
514598754,-5224,-2772,16188,170,-508,-363
514600469,-2944,1000,15712,218,-294,-956
514602183,-2284,2408,16480,-90,-428,323
514603891,-2064,-1516,15740,-245,-237,533
514605608,-2552,-2340,15272,-136,-3,-106
514607323,-2884,-120,15200,162,96,-471
514609056,-3776,836,15804,25,14,97
514610776,-3696,600,16212,-92,-35,106
514612497,-3020,-344,16644,-185,37,166
514614317,-3704,-1308,15980,-102,11,-116
514616293,-3532,188,15752,-70,76,-326
514618170,-3744,-364,17392,-228,134,344
514620105,-4724,-2272,17064,-195,-215,-48
514621822,-4900,-2092,16420,-76,-378,-336
514623495,-3996,-184,16088,-19,-421,-556
514625170,-2908,424,16636,-172,-341,68
514626848,-2616,-1076,16340,-209,-412,297
514628518,-2336,-2108,15736,-30,-244,-535
514630232,-2012,1404,15592,28,-60,-599
514631924,-2112,1376,15808,-334,-1,567
514633623,-3196,-524,15828,-405,-56,620
514635327,-2412,-1876,15796,-145,0,-393
514637035,-2304,436,15768,-39,78,-293
514638742,-2404,216,15392,-98,-54,233
514640461,-2420,-2408,15324,-110,131,317
514642165,-3204,-1788,16612,63,337,-550
514643870,-3204,1040,17008,-13,68,-197
514645578,-3088,992,17268,-180,22,254
514647303,-4024,-1592,16600,-342,89,482
