Time_us,Accel_X,Accel_Y,Accel_Z,Gyro_X,Gyro_Y,Gyro_Z
3386513900,3988,-100,16188,93,195,-198
3386515746,3428,236,16544,136,195,-225
3386517476,3472,2432,16344,53,52,-37
3386519176,4452,1836,16200,-38,150,-43
3386520943,3836,1208,16132,-90,78,159
3386522785,3312,424,16204,-9,-2,-98
3386524546,3432,736,16804,-68,-58,-22
3386526278,3600,80,16304,-47,95,42
3386527972,4060,-216,16200,20,55,-52
3386529694,4596,184,16120,0,34,-90
3386531384,4528,52,16044,21,159,-223
3386533070,3492,1400,16180,63,124,-248
3386534816,2896,1620,16648,-49,3,-181
3386536525,3304,1840,16368,-99,5,-74
3386538362,4068,188,16208,-77,78,105
3386540175,3928,632,16828,-137,0,-123
3386541929,4204,-32,16020,-112,-127,-27
3386543658,3716,544,15924,-29,62,-133
3386545395,4004,956,15808,-97,106,51
3386547132,3992,944,16168,-160,60,-71
3386548841,4312,964,15700,-151,88,-27
3386550525,4464,652,16036,-96,115,-49
3386552210,4508,396,16264,-147,77,-123
3386553890,3808,-480,16120,-64,189,-208
3386555651,3484,-172,16312,1,219,-219
3386557351,3552,584,16572,-35,22,-127
3386559050,3280,760,16764,-71,-65,-99
3386560743,3916,1176,16296,-109,-2,43
3386562434,4232,740,15800,-82,3,36
3386564153,4656,1232,15584,-132,45,-118
3386565929,5132,784,15612,-241,190,100
3386567641,4844,140,15712,-154,294,57
3386569355,4064,-732,16144,-102,210,24
3386571066,3516,-956,16560,40,217,-301
3386572820,3768,352,16396,48,176,-82
3386574546,3796,132,16356,90,141,-87
3386576287,4216,1824,16268,-1,81,-113
3386578035,4324,924,16128,-56,198,-34
3386579786,4048,1088,16036,-55,105,-48
3386581503,3848,860,16020,-124,90,-83
3386583228,3444,496,16240,-147,147,-24
3386585049,3528,240,16296,-96,145,151
3386586912,4200,-892,16108,-1,72,-82
3386588644,4564,48,16204,19,174,-182
3386590419,4644,-108,16404,73,357,-194
3386592206,3560,996,16632,63,201,-138
3386593944,2948,724,16588,-6,130,-197
3386595656,3536,1668,16292,-46,136,58
3386597437,3908,816,16180,-40,117,101
3386599131,3864,296,16348,-40,42,-28
3386600820,3844,316,16292,-35,108,-77
3386602501,3764,632,16216,7,73,-4
3386604183,3880,448,16356,-33,74,-50
3386605866,3936,-28,16188,-33,112,27
3386607600,4136,-552,16088,38,185,-25
3386609300,4372,-312,16100,121,137,-92
3386611011,4304,644,15984,100,141,-298
3386612720,3392,940,16324,10,250,-47
3386614428,2800,844,16500,97,162,-114
3386616137,3388,1584,16548,-50,-49,42
3386617870,3764,840,16316,-71,52,-13
3386619624,3972,536,16516,-22,39,71
3386621336,3916,68,16432,-26,2,-26
3386623041,3644,216,16288,-49,16,-45
3386624757,3648,424,16188,31,134,-68
3386626476,4012,380,16080,63,63,5
3386628213,4268,676,15716,5,81,-184
3386629924,4076,1060,15980,-54,190,-161
3386631646,3228,1288,16556,18,88,-170
3386633362,2984,1092,16772,-36,-54,-70
3386635072,3872,496,16408,-109,44,-93
3386636829,4016,844,16704,-122,120,20
3386638722,3936,648,16408,-60,-105,-50
3386640542,3964,640,15952,-141,-9,-24
3386642275,3948,800,15884,-131,136,-47
3386643973,3896,588,16264,-124,75,1
3386645701,3992,508,15808,-105,-39,-65
3386647411,4144,552,15732,-145,43,-43
3386649136,4264,340,16380,-79,141,-106
3386650830,4320,-304,16544,-41,83,-181
3386652519,4072,248,16192,-41,112,-249
3386654236,3584,704,16228,-50,154,-177
3386655942,3748,1420,16416,-87,-8,-65
3386657671,4168,304,16100,-141,-14,44
3386659441,3944,128,16208,-128,79,-79
3386661150,4308,620,15936,-102,58,-7
3386662864,4452,1008,15924,-90,11,-33
3386664573,4836,380,15896,-175,251,41
3386666280,4620,72,16036,-122,284,8
3386667988,4132,-588,16364,-33,167,-72
3386669753,3628,-388,16572,11,166,-202
3386671463,3720,72,16488,33,255,-232
3386673170,3796,1296,16180,34,117,-88
3386674880,4260,1040,15996,-29,72,-26
3386676587,4424,1024,16040,-93,228,-64
3386678293,4120,636,16240,-64,177,-41
3386680049,3700,1012,16128,-94,70,-56
3386681759,3452,56,16148,-137,165,55
3386683469,3428,120,16524,-22,173,-30
3386685184,3988,-96,16432,-14,89,32
3386687805,4748,600,16020,-8,283,-143
3386689524,3948,436,16328,41,287,-153
3386691235,3428,736,16168,42,191,-156
3386692932,3032,664,16364,-39,125,-82
3386694625,3352,992,16224,6,168,-34
3386696320,3544,836,16648,4,51,36
3386698008,4088,28,16328,-10,22,40
3386699698,4252,232,16176,26,153,-66
3386701389,3988,504,16188,-6,130,-101
3386703091,3708,1036,16272,-46,40,-77
3386704798,3776,656,16524,-84,155,17
3386706504,3796,-768,16032,120,123,-131
3386708212,3672,-516,16164,111,86,-183
3386709920,4152,-348,16204,125,175,-274
3386711626,3240,1652,16040,112,105,-136
3386713331,3436,1756,16116,61,82,-30
3386715036,4032,2552,16320,-78,55,-21
3386716743,4092,860,16300,-113,119,130
3386718449,3516,288,16388,-13,50,-51
3386720156,3264,120,16764,-56,-48,-35
3386721865,3360,64,16348,-23,104,-28
3386723575,4000,36,16220,1,42,-6
3386725282,4348,164,16152,7,3,-72
3386726987,4940,28,15980,0,156,-234
3386728693,3764,1164,15960,33,129,-208
3386730399,2936,1652,16700,-12,34,-251
3386732133,2800,1960,16756,-94,-29,-64
3386733840,3668,392,16384,-51,106,17
3386735548,3984,552,16824,-145,-17,43
3386737253,4160,4,16324,-149,-126,7
3386738958,4232,852,15740,-84,42,-25
3386740663,4104,616,15956,-82,114,31
3386742391,3996,796,16348,-134,110,-114
3386744102,3604,864,16220,-164,74,-115
3386745808,4340,796,16044,-95,88,-53
3386747513,4600,776,16372,-165,45,-47
3386749219,4236,-196,16480,-174,49,-56
3386750924,3688,-240,16308,4,220,-322
3386752653,3696,512,16564,-56,-2,-143
3386754361,3460,1224,16628,-74,12,-133
3386756070,3672,1292,16380,-113,41,37
3386757778,4304,716,15808,-78,36,-34
3386759484,4660,1376,15688,-191,44,26
3386761189,5012,1160,15724,-246,148,23
3386762917,4896,564,15956,-184,248,76
3386764625,4092,-1088,16176,-112,147,10
3386766330,3600,-1260,16528,20,234,-260
3386768065,3528,-480,16728,64,264,-241
3386769774,3760,260,16224,149,93,-160
3386771480,4520,2016,16112,-10,120,-116
3386773209,4800,1664,16032,-116,195,-21
3386774916,4124,1180,16360,-12,229,-130
3386776640,3528,612,16244,-134,23,23
3386778362,3272,1112,16440,-135,203,-57
3386780079,3492,932,16328,-152,153,134
3386781788,3884,-728,16204,-35,48,61
3386783522,4948,-560,15812,-23,195,-96
3386785245,4692,364,16240,134,360,-258
3386786961,4244,1048,16516,97,265,-189
3386788669,2952,556,16516,18,172,-131
3386790377,2784,1380,16396,11,216,-139
3386792087,3028,1504,16468,-10,108,-19
3386793818,4056,828,16280,-57,33,100
3386795525,4236,432,16536,-148,198,-17
3386797233,3504,160,16104,-30,52,-78
3386798940,3136,424,16480,-38,-8,-112
3386800645,3840,40,16248,-73,79,25
3386802353,4052,-460,16348,73,182,-62
3386804163,4032,-764,15908,132,102,-81
3386805900,4472,-156,16088,193,112,-325
3386807623,3920,1532,16044,75,252,-144
3386809343,3232,1808,16436,56,134,-81
3386811056,3548,2408,16588,-58,34,35
3386812768,3440,468,16352,-137,25,139
3386814479,3748,288,16396,-9,79,-25
3386816190,4080,168,16252,3,-51,-40
3386817897,3956,308,16308,-25,19,-36
3386819611,3688,140,16180,23,123,-22
3386821320,4088,292,16144,32,4,-95
3386823028,4264,488,15940,1,41,-158
3386824737,3932,1004,15972,1,219,-221
3386826444,3364,1780,16632,1,99,-200
3386828153,3624,996,16368,-50,-113,27
3386829863,4164,608,16328,-58,38,-4
3386831579,4000,952,16804,-149,176,-4
3386833296,3744,456,16352,-117,-97,-40
3386835038,3688,1024,16408,-105,-102,-39
3386836753,4328,500,15684,-86,110,65
3386838464,3776,348,16280,-119,97,-73
3386840173,4100,500,15880,-111,4,-135
3386841882,4148,764,15864,-98,45,-102
3386843589,4292,368,16220,-133,101,-75
3386845322,4392,-160,16424,-89,96,-232
3386847035,4000,388,16360,-73,144,-247
3386848752,3760,268,16116,-24,126,-123
3386850469,3780,1392,16580,-71,-6,-158
3386852177,4048,504,16180,-129,-1,30
3386853884,3940,432,16092,-76,107,9
3386855616,4176,416,15840,-98,17,16
3386857327,4560,1028,15816,-138,30,-45
3386859930,4864,540,15792,-135,221,58
3386861655,4380,-320,16240,-79,216,-1
3386863367,3532,-420,16696,-26,167,-210
3386865075,3644,-308,16544,-12,199,-189
3386866784,3804,516,16256,72,191,-212
3386868482,3808,1112,16032,-17,57,-28
3386870173,4516,1284,15884,-74,190,-60
3386871864,4740,1180,16124,-74,217,-37
3386873553,4368,716,16024,-68,140,-128
3386875243,3464,560,16056,-148,113,4
3386876934,3316,200,16160,-113,205,-10
3386878625,3456,532,16304,-54,147,45
3386880331,4040,-280,16252,-13,85,-44
3386882039,4832,500,16124,1,240,-74
3386883745,4756,352,16232,20,267,-87
3386885452,3708,532,16384,36,197,-150
3386887158,2892,468,16356,-13,195,-149
3386888957,2856,728,16424,36,167,-56
3386890802,3484,768,16236,6,41,17
3386892561,3960,88,16364,-63,61,36
3386894269,4384,196,16496,13,206,-48
3386895965,4180,228,16380,4,108,-31
3386897704,3196,408,16688,-9,20,-149
3386899397,3700,1192,16592,-89,151,-25
3386901079,4124,-40,16176,61,130,16
3386902759,4004,-444,15828,106,88,-55
3386904441,4132,-828,16352,86,122,-239
3386906121,3300,928,16656,99,153,-137
3386907860,3160,1216,16212,99,93,-45
3386909561,3236,1544,16492,7,27,-45
3386911270,4040,1508,16500,-85,87,45
3386912976,4152,664,16180,-16,-5,1
3386914683,4144,848,16236,-40,1,-41
3386916390,3876,-76,16192,-130,108,-12
3386918122,3432,168,16548,-35,135,-89
3386919831,3352,-212,16416,-15,9,-20
3386921539,4032,172,16292,10,16,-130
3386923244,4544,592,15868,25,155,-209
3386924952,3792,1812,16120,36,85,-202
3386926658,3132,1576,16548,-56,15,-137
3386928387,3304,904,16624,-82,55,-34
3386930097,4108,1340,16604,-118,43,22
3386931804,4088,844,16760,-181,-35,122
3386933511,4236,-428,15984,-70,-11,-78
3386935219,4412,964,15664,-54,17,-33
3386936926,4116,396,15940,-48,134,-127
3386938656,3900,944,16048,-138,157,-100
3386940364,3804,760,15828,-124,153,-138
3386942071,3776,1364,16296,-172,8,-53
3386943776,4212,476,16232,-180,2,21
3386945484,4004,-380,16472,-80,150,-197
3386947188,3744,-228,16224,-14,60,-158
3386948917,3828,980,16456,13,-10,-180
3386950774,3800,1356,16448,-66,-23,-47
3386952638,4120,640,15920,-85,80,-3
3386954465,4536,1144,15636,-152,19,15
3386956230,4732,1108,15740,-201,208,24
3386958190,4476,464,16092,-164,265,-20
3386959999,3848,-676,16344,-138,107,-11
3386961733,3644,-1208,16508,-98,150,-95
3386963413,3436,-704,16664,27,208,-143
3386965092,3868,312,16108,137,90,-221
3386966772,4248,1312,16112,66,37,-156
3386968447,5124,1108,15660,-24,287,-96
3386970169,4068,1516,16100,-32,191,-99
3386971872,3296,636,16312,-80,69,-76
3386973586,3312,1100,16296,-117,148,-115
3386975307,3516,688,16460,-130,179,125
3386977022,3824,-176,16372,-59,-5,117
3386978739,4632,-568,16020,-63,28,117
3386980482,5084,-376,15904,72,389,-212
3386982195,3716,420,16304,89,254,-191
3386983909,2812,568,16464,30,138,-135
3386985639,2736,664,16480,21,187,-203
3386987362,3156,1316,16588,-15,95,20
3386989074,4204,1076,16184,-16,39,-21
3386990852,4400,684,16740,-130,164,1
3386992559,3908,500,16312,-64,134,-87
3386994284,3088,968,16828,-127,-4,39
3386995995,3864,-172,16056,-36,98,-8
3386997730,4092,-280,16184,29,158,7
3386999430,4000,-1260,16060,167,107,-129
3387001191,4268,412,16360,134,94,-263
3387002900,4004,1484,15796,64,223,-84
3387004617,3684,1620,16228,81,232,-129
3387006326,3528,2000,16556,-52,51,-11
3387008057,3136,432,16488,-73,35,77
3387009768,3352,304,16508,0,20,6
3387011500,3828,304,16692,-41,-72,40
3387013209,4256,436,16152,-62,49,-61
3387014927,4228,-112,16204,-9,161,-34
3387016650,4324,-20,16184,70,117,-132
3387018366,3812,392,15948,8,-13,-147
3387020081,3428,1172,15760,48,205,-261
3387021814,3480,1952,16456,-30,90,-79
3387023525,3544,1300,16536,-41,-63,-25
3387025235,4360,420,16536,-76,83,-53
3387026944,3720,732,16836,-128,85,-16
3387028653,3568,500,16504,-129,-65,80
3387030359,3352,856,16400,-73,-42,-109
3387032996,4112,312,16104,-82,106,-35
3387034737,4248,384,15960,-145,-22,-87
3387036452,4484,472,15792,-129,29,-126
3387038159,3940,972,16100,-137,137,-57
3387039863,4272,-240,16056,-99,98,-178
3387041578,3984,484,16436,-85,123,-295
3387043370,3712,144,16420,-104,113,-90
3387045072,3628,908,16496,-16,43,-156
3387046768,3960,656,16376,-102,-48,-78
3387048462,4044,948,16052,-105,10,-67
3387050153,4376,652,15780,-126,100,100
3387051846,4624,424,15656,-115,54,7
3387053597,4452,240,15892,-143,79,-57
3387055303,4592,460,16168,-125,254,-21
3387057013,4328,-88,16532,-46,228,-87
3387058723,3652,-308,16664,-51,112,-79
3387060432,3608,-372,16672,-44,194,-151
3387062139,3644,728,16532,15,129,-105
3387063871,3972,640,15968,30,34,-151
3387065581,4256,1388,15872,-32,70,-124
3387067290,4804,884,15936,-51,236,-52
3387068999,4184,852,15908,-45,170,-51
3387070706,3720,396,15972,-83,177,-66
3387072413,3452,608,16116,-86,234,-40
3387074144,3492,296,16696,-42,162,46
3387075858,3876,-136,16484,-3,90,-43
3387077570,4260,216,16404,-27,189,-118
3387079278,4456,804,16240,30,210,-79
3387080984,3968,764,16140,-11,155,-123
3387082691,3224,252,16184,-43,179,-96
3387084401,3024,252,16388,14,184,-131
3387086107,3364,796,16208,-28,41,-15
3387087814,4040,248,16176,4,60,-51
3387089522,4356,712,16396,-7,168,-70
3387091227,4244,324,16308,-10,140,-7
3387092933,3528,724,16520,-12,67,-137
3387094641,3776,836,16432,-89,151,-30
3387096348,4208,788,16144,-26,213,17
3387098054,4004,-464,15924,20,127,7
3387099762,3928,-656,16104,85,105,-209
3387101469,3528,-88,16408,87,155,-268
3387103177,3116,1084,16232,140,37,-48
3387104907,3820,1712,16416,22,7,-42
3387106616,3996,944,16436,-103,116,57
3387108323,3832,668,16328,-27,131,-21
3387110030,3844,764,16300,-37,-31,23
3387111738,3668,60,16324,-69,103,-123
3387113443,3512,588,16356,-64,204,-81
3387115175,3568,-44,16272,11,35,-77
3387116884,4284,680,15616,1,-63,-70
3387118592,4488,680,16284,-11,235,-235
3387120298,3844,1588,16312,26,166,-259
3387122004,2924,1220,16752,-78,-54,-16
3387123711,3660,532,16260,-42,49,-53
3387125440,3932,740,16640,-40,107,-30
3387127149,4068,360,16448,-98,-11,42
3387128856,4396,576,15916,-85,-61,-120
3387130562,4040,736,15956,-124,110,19
3387132273,4080,436,15960,-79,135,-52
3387133980,4020,820,16248,-199,30,-83
3387135710,3976,836,16000,-154,132,-205
3387137420,3764,1296,16220,-145,127,-77
3387139144,4188,-372,16492,-111,-5,-56
3387140930,4084,36,16416,-76,83,-166
3387142737,3748,152,16272,21,130,-206
3387144501,3948,1244,16480,-47,-34,-20
3387146309,3932,688,16180,-72,-51,19
3387148046,4120,744,15844,-95,124,6
3387149783,4496,876,15848,-99,118,-49
3387151522,4664,1032,15756,-166,70,42
3387153276,4916,760,15944,-201,176,7
3387154997,4180,-172,16212,-161,205,29
3387156710,3808,-860,16524,-65,151,-118
3387158400,3644,-888,16508,-35,117,-141
3387160086,3808,-248,16576,103,239,-303
3387161838,4112,1160,15980,44,49,-103
3387163609,4560,1292,16056,8,166,-128
3387165341,4372,1416,15912,-44,271,-93
3387167112,3856,940,16112,-7,195,-115
3387168809,3544,1468,16200,-154,25,74
3387170572,3580,516,16356,-155,191,120
3387172339,3632,32,16280,-96,205,117
3387174072,4292,-680,15992,-31,81,-35
3387175780,4980,-240,15892,-13,225,-121
3387177566,3956,364,16444,40,337,-152
3387179255,3452,60,16380,59,204,-131
3387180937,2736,932,16468,15,98,-200
3387182618,3328,816,16404,12,141,-73
3387184300,3556,1200,16436,33,144,-71
3387185982,4296,1020,16392,-66,14,66
3387187718,3900,712,16424,-102,118,-82
3387189419,3532,584,16608,-87,77,0
3387191130,3604,344,16536,-67,8,5
3387192844,4096,-152,16244,-40,101,81
3387194553,3756,-1536,16004,138,229,-100
3387196272,3808,-1068,16180,235,194,-252
3387198170,3928,532,16196,166,-10,-215
3387200088,4104,1868,16144,40,287,-148
3387201890,3832,1952,16576,-25,169,8
3387203609,3180,1052,16464,-108,-53,8
3387205953,3100,132,16488,-61,50,-10
3387207647,3580,472,16776,-12,-3,-9
3387209411,4028,152,16048,-83,-49,81
3387211087,4720,-144,15752,-42,88,-41
3387212758,4612,332,16224,52,157,-129
3387214428,3512,224,15852,89,50,-270
3387216098,2984,1040,16264,51,66,-296
3387217766,3188,1924,16540,-56,141,-95
3387219482,4084,1168,15988,-36,-61,119
3387221178,4668,172,16112,-72,19,59
3387222886,3716,508,16848,-132,136,-210
3387224594,3592,340,16164,-117,-51,-17
3387226302,3368,1412,16088,-86,-91,-3
3387228041,4176,1112,15856,-151,-7,108
3387229777,3920,184,15892,-137,90,6
3387231489,4708,324,15576,-55,1,-205
3387233213,4652,948,15912,-92,28,-164
3387234932,4216,552,15932,-103,229,-103
3387236641,4032,580,16060,-69,151,-160
3387238350,3444,724,16492,-80,52,-125
3387240119,3620,484,16752,-104,55,-68
3387241833,3832,428,16832,-35,16,-99
3387243559,3916,768,16072,-68,-60,-30
3387245272,4356,668,15836,-143,56,-21
3387247011,4708,576,15684,-90,124,9
3387248744,4944,432,15504,-134,118,20
3387250496,4664,-40,15860,-157,222,-68
3387252211,4500,120,16176,-124,291,-126
3387253920,3724,-300,16572,-7,208,-95
3387255630,3440,348,16888,-11,137,-202
3387257339,3528,192,16908,-21,157,-150
3387259046,3596,804,16320,58,159,-154
3387260781,4340,1000,15828,-18,55,-25
3387262492,5112,1140,15756,-78,188,-107
3387264203,4828,1196,15996,-83,270,-67
3387265913,3648,528,15928,-68,181,3
3387267620,3396,44,16236,-77,158,-89
3387269328,3452,400,16604,-60,224,-7
3387271059,3528,208,16616,7,157,42
3387272770,4148,144,16260,12,89,-63
3387274482,4396,632,16580,-52,242,-147
3387276196,3792,924,16372,-22,223,-73
3387277938,3400,268,16232,-33,126,-79
3387279743,2828,268,16412,-45,96,-149
3387281593,3276,728,16316,-6,132,-30
3387283339,4120,224,16108,46,48,-15
3387285077,4496,444,15992,34,93,-41
3387286888,4104,432,16220,-46,168,-59
3387288648,3516,1092,16708,5,102,-30
3387290377,3808,824,16208,-23,26,-9
3387292142,3880,-112,16400,-35,202,2
3387293897,3980,-488,15940,63,208,-40
3387295655,4312,-348,16240,116,91,-159
3387297433,3284,384,16292,14,110,-190
3387299193,3436,1484,16212,83,133,-96
3387300918,3428,1576,16644,15,16,0
3387302656,3900,948,16224,-45,36,-32
3387304384,3816,1012,16364,-19,96,-24
3387306073,4032,764,16240,10,55,-11
3387307746,3852,584,16100,-46,-9,-17
3387309424,3592,80,16488,-77,174,-91
3387311095,3684,320,16376,-13,162,-93
3387312764,4340,532,15652,-26,-24,1
3387314419,4180,312,16156,-28,107,-168
3387316072,3852,980,16348,-10,195,-254
3387317724,2840,1296,16596,-9,14,-34
3387319372,3632,644,16284,-6,-42,-123
3387321023,4052,960,16632,-120,30,-44
3387322692,3912,328,16572,-100,94,-47
3387324370,4168,648,16056,-95,-100,-15
3387326043,4244,552,15836,-84,-42,-59
3387327695,4040,792,16028,-148,198,-55
3387329367,3848,516,15908,-126,94,-92
3387331035,3904,620,15908,-97,23,-149
3387332688,4144,1212,16240,-211,49,14
3387334392,4204,16,16392,-84,194,-75
3387336125,4048,-116,16300,-66,13,-114
3387337877,3840,-196,16404,-23,24,-184
3387339617,3856,752,16460,-37,121,-156
3387341400,3824,860,16460,-23,1,-14
3387343185,3980,608,16068,-121,-20,-74
3387344926,4120,788,15828,-171,88,-63
3387346686,4668,932,15568,-103,124,-45
3387348412,4688,1140,16008,-215,119,66
3387350121,4268,-584,16092,-143,256,-45
3387351849,4016,-492,16396,-64,261,-87
3387353567,3692,-1156,16400,9,126,-141
3387355378,3636,216,16556,67,147,-271
3387357129,4112,876,16088,62,180,-91
3387358841,4400,1308,15892,42,167,-109
3387360607,4624,1120,16084,-93,159,22
3387362327,3772,864,16212,-31,206,-94
3387364065,3320,964,16456,-88,96,-20
3387365813,3280,896,16376,-95,57,4
3387367626,3656,412,16416,-129,137,99
3387369328,4284,-620,16216,-22,138,25
3387370996,4916,92,16144,-6,237,-200
3387372663,4564,332,16356,-13,243,-122
3387374362,3360,200,16444,77,336,-231
3387376189,2736,960,16664,12,98,-142
3387378749,3160,1156,16444,19,31,-56
3387380480,3976,696,16484,5,142,49
3387382158,4472,668,16424,-24,68,-68
3387383828,4320,1256,16244,-78,60,-53
3387385501,3324,836,16404,-124,114,70
3387387201,3640,200,16804,-44,81,3
3387388906,3684,-16,16272,-39,6,29
3387390603,3996,-1732,16000,106,136,-74
3387392305,4244,-428,16316,231,218,-299
3387394006,3892,1188,15796,119,32,-255
3387395770,3984,2456,15796,27,142,-133
3387397477,3972,1960,16344,-8,220,-37
3387399188,3172,1200,16412,-94,12,51
3387400897,2852,292,16464,-106,-44,38
3387402605,3356,684,16512,-4,44,-51
3387404314,3988,608,16160,-30,-34,160
3387406046,4760,36,15896,-42,50,8
3387407755,5052,60,16292,-62,128,-93
3387409462,4172,-324,16192,80,121,-150
3387411169,2928,588,16264,114,74,-321
3387412875,2812,1688,16104,56,40,-283
3387414583,3116,1996,16800,-63,92,-46
3387416315,4500,596,16096,-78,18,94
3387418024,4044,480,17052,-161,88,-259
3387419733,3492,1128,16744,-243,-1,-47
3387421441,3408,-284,16072,-31,17,-110
3387423149,3756,1712,16260,-130,-60,98
3387424856,3876,408,16236,-203,-17,150
3387426588,4176,480,15828,-72,64,-112
3387428296,5268,388,15620,-67,65,-120
3387430004,4268,1164,16076,-145,170,-163
3387431715,4224,872,16192,-178,213,-37
3387433432,3528,380,16336,-30,153,-187
3387435163,3424,228,16856,-138,-1,-26
3387436875,3360,180,16780,-38,78,-153
3387438583,3540,644,16512,9,-18,-105
3387440291,4084,892,15984,-107,-117,2
3387441997,4760,712,15592,-154,86,-29
3387443704,5124,1000,15372,-159,183,5
3387445412,5004,108,15372,-134,178,63
3387447147,4344,-112,16028,-112,233,-136
3387448859,3636,-356,16620,17,304,-204
3387450568,3260,280,16668,75,204,-197
3387452278,3152,260,16860,-50,90,-33
3387453988,3688,908,16608,-10,157,-166
3387455784,4936,1020,15940,-41,33,41
3387457661,4984,424,15704,-19,77,-62
3387459383,4576,792,15940,-102,220,-77
3387461084,3416,460,16032,-33,197,-79
3387462779,3276,280,15956,-26,128,-41
3387464474,3584,404,16416,-96,152,-48
3387466165,3832,160,16404,-16,212,-35
3387467921,4504,280,16264,-5,184,-19
3387469629,4520,168,16272,17,205,-149
3387471338,3852,1288,16540,-77,256,-143
3387473046,3128,316,16476,13,178,-69
3387474755,3192,532,16388,-5,84,-80
3387476464,3316,200,16120,-34,62,-10
3387478198,3864,428,16076,62,150,-76
3387479909,4480,432,16244,9,87,17
3387481619,4232,424,16260,-10,52,-34
3387483328,3248,868,16432,-61,164,-88
3387485036,3484,708,16728,20,53,-17
3387486744,4204,-88,16280,-16,55,5
3387488452,4232,-460,16112,-25,182,-88
3387490161,4528,-100,15976,100,223,-171
3387491869,3388,60,16104,48,52,-65
3387493576,2880,104,16416,93,52,-161
3387495284,3320,1796,16828,14,117,-83
3387496990,3732,1308,16048,16,48,4
3387498721,3992,836,16140,-41,11,25
3387500429,3948,448,16488,-63,65,-49
3387502137,4136,720,16416,-37,47,-6
3387503844,3704,172,16576,-28,67,-60
3387505551,3748,460,16388,-44,78,-39
3387507258,3836,324,15892,1,67,-121
3387508988,4572,936,15704,-9,60,-81
3387510703,3980,1152,16172,-42,188,-228
3387512502,3116,1272,16760,-67,151,-151
3387514336,3216,360,16496,-23,-31,-135
3387516117,4204,944,16444,-145,-56,78
3387517850,3996,336,16684,-103,124,-51
3387519658,4236,392,15996,-59,-58,-54
3387521367,4120,856,15824,-36,-13,-111
3387523067,3960,856,16044,-135,156,12
3387524766,3924,892,16152,-107,72,-131
3387526465,4072,1300,15752,-148,10,-92
3387528166,4112,572,15968,-202,68,9
3387529925,4304,-332,16424,-76,189,-96
3387531637,3932,-24,16376,-46,38,-219
3387533352,3680,100,16404,-31,29,-212
3387535065,3832,1136,16424,-3,131,-127
3387536775,3812,712,16372,-89,-25,-8
3387538489,3924,708,16124,-105,-24,-38
3387540225,4328,640,15936,-136,86,6
3387541936,4644,1164,15896,-105,138,-74
3387543651,4788,712,15756,-207,100,79
3387545364,4640,172,15996,-168,181,17
3387547150,4296,-500,16296,-85,273,-19
3387548923,3756,-776,16296,30,185,-242
3387551495,4000,520,16216,7,165,-150
3387553238,4188,832,15904,92,210,-65
3387554946,4220,992,16160,-25,143,-129
3387556642,3960,884,16232,-60,144,-64
3387558340,3816,940,16312,-29,174,-79
3387560077,3616,944,16208,-126,81,14
3387561800,3836,532,16412,-149,113,35
3387563497,3744,284,16408,-149,165,105
3387565194,4400,-620,16052,12,166,-89
3387566889,4864,320,16056,-30,220,-140
3387568582,3804,328,16260,38,360,-192
3387570274,3416,520,16480,92,292,-183
3387572063,2896,804,16520,17,89,-151
3387573770,3440,1296,16308,-13,113,-68
3387575482,3788,1212,16364,-14,171,44
3387577192,3976,380,16388,10,73,53
3387578901,3848,560,16576,-77,29,-80
3387580610,3588,1040,16264,-78,113,43
3387582344,3964,696,16444,-46,123,23
3387584077,3768,-72,16280,-45,4,27
3387585788,3668,-1464,16084,79,133,-153
3387587498,3916,-1112,16020,155,205,-235
3387589207,4032,-92,16208,183,150,-241
3387590914,3456,2220,15860,82,130,-188
3387592646,4240,2056,16264,28,172,3
3387594357,4316,2324,16332,-15,121,-32
3387596087,3448,420,16328,-141,-35,91
3387597795,3104,516,16480,-40,94,-80
3387599502,3620,84,16320,-43,-44,60
3387601208,3736,212,16256,-50,-32,25
3387602939,4480,-172,15976,-31,83,-11
3387604647,4676,-140,15840,89,115,-165
3387606356,4248,100,15900,107,74,-299
3387608086,3184,1508,16432,7,62,-295
3387609793,3232,1776,16612,-48,127,-158
3387611501,3880,624,16308,-101,-34,153
3387613231,4336,-228,16132,-96,84,-50
3387614941,3756,1240,16744,-202,12,-64
3387616649,3960,40,16028,-16,-19,-103
3387618354,3292,1292,16400,-16,-28,-143
3387620080,4020,224,15780,-186,102,91
3387621789,3900,1004,16236,-115,45,30
3387623520,4808,240,15696,-89,-10,-103
3387625230,4656,712,16024,-117,112,-123
3387626936,4324,340,16180,-105,222,-139
3387628643,3700,-136,16272,7,80,-210
3387630348,3432,348,16476,-8,41,-258
3387632089,3576,556,16928,-107,74,-84
3387633815,3384,888,16640,-31,-43,-107
3387635534,4136,744,15916,-135,-119,23
3387637244,4352,692,15716,-137,6,-71
3387638954,4848,1384,15496,-160,109,48
3387640662,4980,264,15584,-153,183,36
3387642369,4808,48,15916,-157,243,8
3387644103,4064,-996,16144,-55,286,-123
3387645808,3572,-64,16552,46,181,-147
3387647512,3400,-136,16556,8,150,-87
3387649217,3672,232,16556,47,233,-155
3387650919,4072,1748,16288,19,78,-83
3387652627,4700,1084,15992,-19,46,-37
3387654342,4636,1288,16088,-77,159,-101
3387656075,3944,592,15852,-112,208,-28
3387657785,3460,832,16008,-106,72,-45
3387659495,3744,-564,16164,-117,164,40
3387661203,3832,-520,16524,-27,234,-55
3387662912,4356,32,16348,-8,158,-35
3387664626,4368,132,16600,65,264,-260
3387666334,4184,1064,16332,50,294,-210
3387668063,3324,692,16532,29,199,-144
3387669773,3228,1556,16396,-43,59,-67
3387671480,3520,444,16144,-79,142,76
3387673187,3692,280,16124,-16,145,26
3387674893,4096,240,16420,-3,44,-78
3387676598,4052,200,16036,-3,97,-38
3387678305,3740,484,16368,-4,165,-61
3387680042,3500,180,16520,-47,53,-3
3387681751,3884,412,16104,-13,92,-84
3387683464,4312,-696,16020,110,223,-120
3387685172,4380,-68,16292,152,199,-279
3387686882,3924,448,16304,26,98,-98
3387688587,2716,1016,16660,102,176,-153
3387690294,3012,1548,16380,55,70,-59
3387692026,3592,1264,16400,-42,-51,-36
3387693735,4064,1308,16384,-86,35,84
3387695467,4008,76,16304,23,46,17
3387697175,3856,248,16176,-14,12,-50
3387698882,3744,312,16384,-52,48,-95
3387700588,3804,392,16496,36,157,-28
3387702295,4016,600,15872,-19,25,-135
3387704026,4224,764,15716,-13,9,-118
3387705762,4164,1208,16380,-32,213,-228
3387707473,3060,800,16516,1,49,-137
3387709180,3084,896,16636,-41,-19,-95
3387710886,3968,924,16232,-139,28,34
3387712593,4032,480,16424,-61,73,4
3387714298,4088,508,16020,-74,-93,-53
3387716062,4360,772,15812,-110,-49,-84
3387717772,4000,1064,15848,-107,174,23
3387719480,3824,320,15940,-89,71,-49
3387721188,3940,552,15884,-114,-10,-135
3387724083,4276,552,16216,-127,167,-51
3387725852,4236,-344,16432,-68,91,-144
3387727653,3644,-124,16272,-41,72,-254
3387729357,3748,1168,16360,3,123,-206
3387731052,3884,1244,16476,-38,23,-56
3387732745,3892,784,16152,-105,-33,-27
3387734438,4004,792,16016,-158,75,5
3387736131,4188,648,15736,-77,71,-29
3387737822,4632,1232,15608,-138,52,15
3387739536,4812,268,15808,-195,218,-13
3387741253,4332,-156,16340,-94,251,61
3387742960,3968,-1012,16396,-43,181,6
3387744669,3764,-560,16592,43,165,-247
3387746375,3732,468,16364,69,213,-203
3387748183,4212,1416,15744,47,116,-51
3387749908,4468,1344,16020,-38,100,-39
3387751610,4192,896,16088,-106,219,-62
3387753309,3836,1104,16396,-68,142,-49
3387755012,3484,896,16272,-109,36,-4
3387756713,3604,588,16308,-152,132,-48
3387758431,3656,-28,16656,-81,162,135
3387760145,4324,-328,16252,20,103,-91
3387761857,4808,188,15808,-14,145,-126
3387763594,4356,340,16392,45,397,-234
3387765430,3248,652,16252,52,186,-95
3387767198,2724,708,16340,1,95,-124
3387768993,2864,868,16232,-29,153,-80
3387770685,3628,1092,16368,16,100,57
3387772363,4476,48,16292,-20,20,27
3387774033,4532,276,16380,-81,84,-65
3387775716,3508,384,16320,-33,151,-51
3387777397,3780,1492,16180,-67,80,-19
3387779126,4136,152,15796,-53,125,0
3387780825,3988,-240,16196,19,195,-56
3387782535,3904,-1596,16488,167,34,-131
3387784246,4032,388,16644,169,116,-346
3387785954,3628,1112,16240,66,155,-211
3387787663,3616,2280,16296,79,165,-50
3387789395,4056,2164,16356,-114,36,72
3387791103,3584,712,16360,-125,58,98
3387792810,3548,36,16344,-50,102,18
3387794520,3404,380,16616,-29,-39,-22
3387796230,3744,92,16144,-46,13,-20
3387797943,3784,192,16280,-65,126,-10
3387799675,4732,-260,16192,32,46,-91
3387801386,4204,344,16100,22,68,-224
3387803097,3360,1008,15924,50,192,-305
3387804804,3192,1928,16444,44,209,-326
3387806513,3308,1740,16520,-84,-98,43
3387808223,4208,532,16416,-101,65,39
3387809954,4264,660,16620,-149,183,-30
3387811663,4148,276,16296,-143,-108,7
3387813373,3824,808,15916,-89,-30,2
3387815080,4176,356,15712,-80,192,28
3387816787,4000,616,16136,-86,193,-66
3387818498,3740,500,16056,-90,-51,-106
3387820235,4672,920,16168,-128,120,-104
3387821946,4484,944,16224,-133,181,-72
3387823653,4096,-248,16100,-110,119,-119
3387825363,3320,128,16492,-54,90,-237
3387827074,3696,308,16624,-14,111,-189
3387828781,3580,944,16752,-14,47,-160
3387830513,3892,820,16264,-76,-122,62
3387832226,4088,940,15868,-118,64,-7
3387833949,4428,924,15416,-107,108,4
3387835676,5244,1524,15400,-189,106,16
3387837390,4868,20,16088,-230,237,129
3387839098,3856,-1264,16152,-27,261,-16
3387840891,3484,-1500,16512,24,233,-204
3387842594,3500,-52,16604,46,81,-215
3387844290,3836,512,16552,104,225,-197
3387845983,4320,1888,15900,-25,69,-21
3387847674,4748,1368,15900,-87,80,-12
3387849365,4316,1324,16088,-112,187,-73
3387851160,3704,456,15916,-82,179,-44
3387852955,3208,1072,16112,-151,90,8
3387854691,3412,340,16364,-173,84,126
3387856397,3756,-432,16300,-2,139,27
3387858095,5068,-804,16156,19,159,-67
3387859787,5216,-292,15964,63,301,-261
3387861481,4076,900,16384,48,344,-119
3387863170,2736,672,16448,74,161,-147
3387864867,2592,1156,16336,39,105,-188
3387866564,3332,1432,16372,-84,72,62
3387868255,4104,484,16200,11,181,67
3387869945,4364,228,16332,-86,37,-77
3387871638,4228,276,16140,-89,-3,-110
3387873342,3132,764,16476,-68,96,7
3387875050,3684,-72,16416,32,72,-87
3387876757,4104,464,16080,14,85,-89
3387878465,4144,-904,15848,96,139,-45
3387880175,4508,276,16048,223,197,-295
3387881915,3864,1036,16028,37,139,-121
3387883628,3184,1340,16320,46,195,-152
3387885338,3548,1896,16280,-23,112,112
3387887046,3476,776,16272,-80,4,31
3387888754,3528,696,16400,-74,-10,-10
3387890460,3804,32,16600,-31,45,13
3387892193,4132,368,16248,11,24,-50
3387893901,3912,-76,16216,-26,36,-52
3387896469,4156,740,16148,-3,143,-98
3387898190,3984,340,15760,30,92,-167
3387899901,3768,1820,16284,-21,116,-294
3387901609,3496,1784,16640,-68,91,-147
3387903385,3400,1020,16524,2,16,-34
3387905091,4256,592,16512,-106,60,-26
3387906789,4008,532,16608,-159,126,-131
3387908483,3808,988,16460,-137,-13,64
3387910176,3932,432,16048,-20,-86,-33
3387911867,4120,684,16000,-155,77,-41
3387913617,3820,528,16200,-184,181,-14
3387915329,4040,472,16056,-23,33,-143
3387917043,4320,1168,15856,-170,-37,-67
3387918751,4216,388,16248,-201,86,-37
3387920459,4460,232,16364,-87,204,-173
3387922243,3680,20,16256,-40,45,-172
3387924087,3580,996,16456,-75,89,-222
3387925873,3960,944,16380,-50,33,-13
3387927590,3968,916,16364,-38,4,4
3387929290,4048,236,15860,-159,-21,30
3387930992,4404,840,15948,-112,145,-159
3387932694,4700,1424,15776,-116,124,-23
3387934391,4908,488,15668,-166,151,92
3387936093,4440,-344,16216,-155,294,-51
3387937792,3776,-712,16684,19,194,-118
3387939489,3608,-700,16664,64,141,-184
3387941188,3812,596,16520,8,124,-231
3387942888,3968,1144,16096,24,178,-65
3387944666,4168,1492,16064,3,150,-47
3387946383,5024,488,15812,-66,119,-83
3387948103,4108,1400,16380,-105,210,-113
3387949818,3368,352,16056,-72,128,-16
3387951536,3268,636,16172,-83,110,-31
3387953255,3452,-136,16632,-133,113,86
3387954996,4052,76,16192,34,148,-24
3387956759,5096,148,16164,-13,214,-90
3387958475,4700,304,16172,-16,266,-155
3387960190,3320,420,16480,33,317,-185
3387961898,2888,588,16340,48,79,-122
3387963609,2980,560,16336,16,39,-117
3387965351,3392,988,16480,-73,153,49
3387967094,4060,-132,16300,47,81,-61
3387968841,4180,348,16480,-57,-10,72
3387970558,4140,-404,16128,-50,84,-66
3387972274,3048,1416,16704,-15,120,-89
3387973987,3560,388,16564,-39,52,-49
3387975776,3952,-48,16316,-18,84,53
3387977488,4256,-988,15780,83,220,-51
3387979190,4396,-252,16204,160,134,-245
3387980887,3320,896,16320,59,59,-163
3387982581,3048,1340,16056,94,89,-84
3387984278,3424,1980,16888,28,73,-36
3387986040,4172,1284,16344,-111,-8,81
3387987755,3800,636,16380,-88,94,-15
3387989472,3744,676,16360,-61,95,10
3387991186,3732,-32,16380,-48,6,-74
3387992896,3572,-8,16392,-77,64,13
3387994609,3888,-436,16112,-1,135,-40
3387996328,4148,484,16240,0,30,-96
3387998043,4440,724,15680,45,147,-309
3387999758,3400,1864,16312,-19,157,-148
3388001473,2776,1224,16748,-25,46,-115
3388003182,3464,1260,16564,-96,-53,22
3388004897,4172,780,16500,-140,116,57
3388006637,4064,-304,16144,-85,-24,9
3388008350,4140,176,16276,-47,-89,-97
3388010082,4148,616,15772,-91,37,0
3388011800,3908,792,16140,-83,206,-81
3388013510,3868,600,16292,-149,111,-74
3388015215,4048,1376,15956,-141,26,-163
3388016998,4100,452,16140,-163,122,-5
3388018710,4084,-4,16528,-66,58,-122
3388020417,3864,-244,16400,-77,4,-129
3388022129,3764,20,16148,3,159,-274
3388023844,3728,1160,16236,-12,31,-108
3388025553,3828,1164,16376,-59,-50,-35
3388027287,4172,1236,15984,-158,6,24
3388029009,4604,828,15480,-109,131,47
3388030720,4872,972,15820,-181,162,-30
3388032446,4672,596,15940,-191,147,-48
3388034169,4048,-496,16336,-145,220,43
3388035889,3668,-1096,16536,-29,207,-116
3388037690,3640,-768,16840,19,120,-193
3388039404,3816,-128,16560,79,141,-236
3388041099,4504,1408,16112,92,96,-124
3388042798,4660,1484,16088,-44,182,-140
3388044497,4304,1496,16076,-82,216,-86
3388046192,3572,964,16072,-36,203,-91
3388047951,3608,1164,15892,-126,93,-11
3388049667,3612,580,16272,-146,151,95
3388051376,3724,140,16672,-112,163,151
3388053092,4716,-1100,15868,-2,143,-22
3388054809,4764,-168,16328,58,276,-268
3388056523,4232,348,16592,77,326,-241
3388058238,3016,588,16676,110,228,-60
3388059954,2732,1208,16424,13,84,-208
3388061692,3380,988,16164,-50,59,2
3388063408,4112,1092,16236,-19,204,-4
3388065123,4396,488,16608,-83,64,20
3388066833,3620,976,16484,-102,66,-183
3388069753,3700,-204,16548,35,81,-18
3388071508,3992,-380,16132,9,50,47
3388073221,4156,-1140,15936,44,98,-81
3388074938,4392,236,16316,171,208,-242
3388076655,4064,908,15892,103,87,-135
3388078366,3636,1300,15984,69,153,-116
3388080085,3244,1916,16496,-34,179,-60
3388081781,3460,800,16396,-38,-14,114
3388083463,3536,380,16384,-31,-49,-14
3388085148,3700,264,16776,-93,5,74
3388086833,3872,416,16412,14,99,-118
3388088515,4192,-124,16188,-24,-5,-42
3388090199,4192,268,15948,26,65,-191
3388091904,4024,580,15940,-6,85,3
3388093616,3596,796,15892,100,110,-305
3388095331,3600,1672,16092,28,72,-228
3388097046,3484,1292,16596,-58,103,-161
3388098756,4060,1272,16320,-33,45,78
3388100534,3880,368,16608,-156,52,-68
3388102250,3708,596,16712,-172,23,-39
3388103962,3700,680,16416,-77,-12,-12
3388105719,3984,724,15832,-36,-55,25
3388107481,3836,656,15988,-206,102,0
3388109192,3772,284,16064,-188,139,-22
3388110924,4180,1064,15928,-76,15,-152
3388112639,4316,8,15888,-147,44,-36
3388114355,4236,-20,16280,-157,183,-186
3388116086,3968,464,16472,-59,155,-169
3388117800,3644,620,16508,-25,8,-177
3388119515,3944,712,16616,-130,106,-100
3388121262,3908,808,16412,-98,121,-96
3388122986,4008,864,16044,-103,-25,37
3388124703,4140,208,15764,-142,43,-10
3388126412,4568,560,15852,-86,165,-67
3388128142,4384,684,16012,-94,68,-40
3388129870,4612,260,15944,-109,101,-9
3388131610,4392,24,16380,-110,284,-71
3388133326,4116,-520,16368,-30,230,-72
3388135039,3632,184,16660,-4,105,-180
3388136749,3984,352,16284,-22,223,-167
3388138458,3896,1376,16188,19,138,-49
3388140167,4292,972,16068,-15,56,33
3388141897,4564,932,16052,-76,164,-113
3388143608,4084,896,15904,-67,227,-44
3388145316,3732,760,16152,-34,115,-34
3388147021,3584,580,16500,-108,71,56
3388148730,3504,-120,16508,-68,212,48
3388150439,3812,-28,16484,20,177,-116
3388152176,4288,408,16308,6,121,-97
3388153889,4584,244,16212,-19,237,-86
3388155599,3816,476,16280,14,261,-121
3388157305,3472,196,16252,3,150,-103
3388159055,2924,676,16600,-11,77,-154
3388160818,3492,632,16144,-13,153,-17
3388162556,3832,712,16364,8,55,-10
3388164264,4100,600,16400,-12,19,42
3388166018,4192,228,16128,-14,139,-90
3388167723,3496,920,16460,-8,124,-63
3388169427,4028,1236,16284,-42,73,-29
3388171143,4036,800,16268,-59,61,88
3388172878,3892,-1132,15944,117,219,-53
3388174657,3760,-520,16712,133,80,-267
3388176494,3392,836,16424,76,49,-126
3388178258,3532,1248,16008,102,196,-73
3388179968,3956,1924,16336,-18,52,14
3388181720,4188,1452,16196,-100,26,-11
3388183533,4076,560,16264,-52,120,11
3388185233,3864,188,16396,-17,78,-9
3388186924,3376,432,16420,-73,41,-105
3388188609,3492,-24,16336,-50,87,-30
3388190290,3792,168,16240,40,92,-93
3388191979,4524,136,15980,-4,-10,-32
3388193751,4272,1108,16112,16,189,-339
3388195448,3244,1116,16432,-10,114,-58
3388197197,2848,916,16408,31,9,-92
3388198972,3588,928,16436,-82,-49,-31
3388200702,3856,648,16672,-121,123,12
3388202418,4056,420,16356,-84,-90,-8
3388204210,4508,536,15828,-124,-106,-13
3388205908,4076,816,15600,-151,94,-44
3388207600,4008,528,15908,-118,195,-38
3388209284,3808,940,15940,-107,41,-217
3388210964,3832,1452,16212,-186,15,-94
3388212654,4360,388,16404,-117,127,-47
3388214341,3920,-184,16296,-67,22,-111
3388216069,3920,-508,16336,-62,25,-199
3388217799,3972,920,16188,-21,147,-230
3388219508,3940,848,16400,-19,52,-10
3388221204,3772,836,16304,-57,-27,18
3388222900,4048,620,16008,-162,39,-17
3388224601,4428,788,15704,-67,110,-37
3388226369,4796,1244,15980,-187,98,5
3388228083,4700,760,15952,-231,126,39
3388229881,4124,-356,16276,-150,256,-32
3388231684,3768,-1388,16476,-37,127,-77
3388233440,3668,-340,16768,47,166,-330
3388235186,4044,720,16372,96,192,-86
3388237002,4300,1188,16036,128,149,-136
3388238697,4644,1580,16004,-55,125,1
3388240388,4036,1112,16224,-72,251,-142
3388242725,3560,1152,16392,-99,87,66
3388244422,3336,812,16432,-126,88,72
3388246109,3624,456,16392,-179,169,125
3388247930,3876,-500,16256,-20,146,75
3388249712,4848,-692,15948,48,147,-172
3388251529,4376,132,16272,9,321,-195
3388253337,3284,640,16464,115,266,-216
3388255110,2820,956,16528,44,145,-157
3388256874,3168,1088,16304,-12,83,-123
3388258688,3788,1592,16352,-84,148,64
3388260424,4308,548,16288,-33,78,19
3388262147,4040,616,16500,-84,40,-60
3388263829,3372,532,16664,-119,101,-8
3388265517,3644,200,16488,-14,16,18
3388267213,3832,-1188,16384,10,83,20
3388268924,4056,-1432,15756,67,181,-96
3388270599,3788,-280,16372,228,224,-319
3388272280,4108,1276,15760,174,1,-169
3388273965,4232,1836,15844,60,118,-173
3388275653,3816,2016,16396,-57,248,27
3388277377,3308,1144,16624,-93,15,29
3388279117,3432,-100,16332,-80,-27,11
3388280801,3400,8,16828,-44,50,-60
3388282484,3776,456,16448,-36,34,50
3388284177,4212,76,15976,21,-1,-40
3388285859,4500,320,16040,13,63,-97
3388287540,4436,184,16116,61,130,-157
3388289265,3524,1212,16084,46,54,-244
3388290961,3292,1504,16244,-23,72,-161
3388292652,3208,1540,16512,-27,118,-92
3388294334,4452,620,16068,-44,-29,74
3388296039,4668,0,16520,-72,87,-69
3388297723,3428,1068,16796,-194,36,-21
3388299428,3344,436,16300,-61,9,-71
3388301105,3832,1348,15800,-143,-62,96
3388302778,4064,468,16252,-222,6,128
3388304462,4052,160,15840,-105,136,-111
3388306139,4548,792,15576,-84,-5,-68
3388307806,4356,512,15952,-75,-27,-98
3388309527,4264,180,16320,-131,169,-155
3388311230,3864,368,16332,-60,148,-248
3388312920,3472,920,16256,-56,70,-166
3388314619,3672,560,16520,-122,70,-78
3388316307,3836,840,16404,-45,43,-81
3388317995,3772,780,16328,-57,-24,-69
3388319705,4220,644,16044,-120,21,13
3388321397,4608,376,15888,-100,145,-41
3388323080,4444,92,15780,-124,58,2
3388324780,4708,160,15580,-134,82,-49
3388326473,4608,508,16260,-151,305,-3
3388328151,3772,-372,16476,52,240,-267
3388329843,3724,452,16704,7,144,-185
3388331561,3584,-68,16468,-23,130,-206
3388333245,3668,1448,16492,6,163,-19
3388334931,3924,792,16224,-21,88,46
3388336623,4632,1276,15924,-42,60,-93
3388338315,4652,592,15788,-110,221,-26
3388340028,3772,612,16140,-29,156,20
3388341753,3596,132,16116,-80,122,11
3388343435,3384,164,16472,-79,215,-88
3388345123,3884,356,16436,5,209,17
3388346826,3776,76,16440,6,116,0
3388348517,4564,440,16204,-8,163,-162
3388350232,4084,796,16320,-56,282,-75
3388352042,3192,192,16500,32,141,-161
3388353728,2940,528,16464,-12,62,-134
3388355390,3164,588,16172,-48,128,-93
3388357059,3784,648,15960,54,89,43
3388358716,4164,272,16264,52,65,33
3388360395,4484,400,16380,-16,120,-73
3388362117,3740,600,16400,4,177,-53
3388363798,3476,784,16540,26,113,-67
3388365495,3996,1128,16664,-71,86,14
3388367230,3976,-264,16056,7,199,-3
3388369005,4056,-740,16452,148,116,-158
3388370761,4024,-268,16396,94,81,-220
3388372518,3248,624,16216,45,111,-188
3388374266,3144,1508,16656,68,97,5
3388376046,3996,1424,16428,-30,-22,-32
3388377794,3820,1424,16464,-106,-2,-16
3388379528,4136,584,16208,-8,133,-31
3388381240,3844,592,16388,-49,16,7
3388382969,3508,76,16480,-68,98,-103
3388384716,3656,388,16368,-62,169,-86
3388386481,4012,468,16120,-16,3,24
3388388238,4816,108,15568,-27,72,-139
3388389957,3644,1544,16112,11,214,-285
3388391696,3144,1512,16488,14,81,-90
3388393460,3412,876,16468,-18,-52,-90
3388395211,3904,652,16500,-142,58,15
3388396947,3716,704,16320,-112,4,25
3388398647,4036,308,16108,-114,-152,41
3388400314,4428,888,15784,-78,31,-128
3388401968,4232,508,15936,-141,219,19
3388403679,4116,524,16096,-97,177,-98
3388405355,3804,1016,15912,-146,-22,-88
3388407036,3956,760,16384,-156,116,-109
3388408715,4164,840,16280,-107,126,-38
3388410394,4036,-328,16504,-85,42,-41
3388412087,4048,-296,16052,-49,113,-153
3388414738,3948,1168,16344,-20,46,-154
3388416507,4160,628,16192,-26,-33,-17
3388418229,4128,652,16072,-169,103,5
3388419942,4436,840,15724,-76,98,-107
3388421656,4548,1604,15828,-149,58,-33
3388423366,4896,516,15912,-227,204,24
3388425077,4072,-116,16256,-144,267,10
3388426782,3828,-864,16192,-99,174,15
3388428478,3548,-640,16468,13,131,-218
3388430170,3876,-4,16364,45,234,-178
3388431863,4288,1496,15644,89,146,-98
3388433563,4528,1412,16004,6,108,0
3388435266,4356,712,16144,-54,185,-110
3388436994,3492,1160,16420,-34,177,-100
3388438718,3536,1216,16084,-59,107,-31
3388440430,3644,796,16264,-119,91,75
3388442142,3700,-108,16436,-153,187,148
3388443856,4692,-500,15776,1,111,-81
3388445570,5092,40,16012,-22,165,-99
3388447272,4336,-264,16308,23,350,-236
3388448966,2980,796,16600,82,240,-177
3388450657,2784,560,16504,60,107,-108
3388452350,2980,1496,16448,17,53,-129
3388454040,3716,924,16460,-7,140,35
3388455744,4332,1112,16196,18,169,4
3388457452,4328,984,16372,-132,56,11
3388459159,3496,784,16244,-113,116,30
3388460863,3596,36,16324,-42,87,22
3388462573,3820,-428,16456,-32,44,-5
3388464281,3996,-1320,16292,96,107,-107
3388465995,4096,-700,16368,188,221,-222
3388467708,4136,-40,16272,192,121,-274
3388469418,4280,2216,15872,37,128,-112
3388471168,3776,1868,16468,-36,243,-78
3388472902,3060,1048,16608,-70,-21,79
3388474717,3088,192,16336,-77,-58,41
3388476429,3388,864,16748,-17,-3,-74
3388478120,4016,364,16208,-38,-10,92
3388479849,4704,340,15820,-61,55,2
3388481668,4576,8,16360,-16,147,-108
3388483460,3980,-220,15976,77,91,-126
3388485276,3060,636,15908,70,70,-289
3388486976,3420,2004,16300,-40,116,-141
3388488659,3516,1868,16448,-40,114,-71
3388490350,4512,496,16068,-74,26,100
3388492058,3992,576,17068,-123,72,-288
3388493739,3428,-188,16464,-170,-70,115
3388495484,3480,76,16188,-29,52,-114
3388497190,3760,1716,15800,-140,-68,97
3388498901,4288,340,15760,-140,89,-37
3388500621,4300,484,15808,-98,92,-70
3388502338,4932,352,15760,-89,49,-130
3388504072,4144,1104,16244,-158,143,-146
3388505790,4216,68,16216,-80,248,-152
3388507569,3684,468,16532,-44,152,-222
3388509268,3424,176,16844,-103,-10,-53
3388510972,3604,264,16644,-24,44,-154
3388512671,3880,616,16264,-4,10,-152
3388514366,4164,1052,16016,-100,-63,6
3388516086,4716,808,15704,-151,64,-32
3388517809,4804,240,15460,-137,167,88
3388519556,4752,-56,15432,-94,173,-41
3388521354,4528,440,16192,-144,182,-56
3388523092,3776,-296,16528,7,319,-164
3388524797,3516,336,16760,-46,164,-46
3388526509,3288,-396,16900,-44,95,-126
3388528300,3756,1280,16896,-23,117,-116
3388529984,4472,548,16204,11,86,-6
3388531661,4800,804,15992,-41,124,-118
3388533337,4620,856,15808,-102,210,-115
3388535016,3736,536,15908,-16,225,-28
3388536693,3476,612,16132,-83,136,-61
3388538422,3364,428,16404,-115,138,-2
3388540128,3688,468,16488,-51,215,-63
3388541880,4404,-288,16180,4,104,10
3388543749,4448,1160,16396,-35,213,-248
3388545568,4272,1200,16392,-105,253,-63
3388547348,3228,264,16492,30,191,-77
3388549210,3136,160,16372,-18,33,-59
3388550923,3264,696,16248,-41,156,-92
3388552668,4252,384,16132,38,96,28
3388554450,4388,140,16408,62,59,-21
3388556175,4036,644,16484,-40,121,-122
3388557859,3548,660,16520,-19,138,-26
3388559577,3516,668,16752,2,92,-27
3388561264,4216,640,16112,-88,74,75
3388562944,3832,-724,16092,69,239,-122
3388564632,4168,-440,16144,100,66,-127
3388566316,3848,-160,16228,76,58,-178
3388567995,3088,1416,16152,57,148,-195
3388569792,3592,1216,16448,46,49,-21
3388571500,3896,1748,16028,38,8,-21
3388573210,3988,632,16320,-68,13,38
3388574933,3992,1324,16408,-21,85,-53
3388576648,3820,76,16324,-50,27,27
3388578355,3480,76,16396,-21,64,-37
3388580149,3912,132,16400,-43,140,-73
3388581871,3900,604,15844,35,-12,-40
3388583581,4676,872,15856,-30,133,-213
3388585291,3912,1220,16184,-65,190,-243
3388587826,2956,1028,16480,-43,-52,-77
3388589541,4004,452,16204,-92,-14,-32
3388591252,4212,464,16632,-132,111,-50
3388592954,3816,388,16480,-102,-20,3
3388594647,4248,996,15832,-40,-45,-99
3388596346,4208,1272,15772,-110,17,2
3388598042,4032,432,16112,-122,220,-52
3388599733,3872,956,16124,-136,31,-70
3388601426,3984,900,15812,-153,-18,-54
3388603121,3968,472,16192,-155,139,-26
3388604824,4060,-252,16720,-61,80,-133
3388606531,3908,-356,16404,-10,24,-184
3388608238,3760,32,16456,-4,132,-243
3388609944,3888,816,16244,-13,63,-77
3388611653,4016,1272,16160,-82,-42,-82
3388613360,3924,996,16184,-154,-40,34
3388615068,4368,716,15900,-99,153,-108
3388616776,4628,1180,15840,-199,76,34
3388618483,4640,420,16068,-179,188,-32
3388620192,4372,244,16228,-176,248,-25
3388621924,3876,-1156,16372,-48,199,-45
3388623632,3660,-212,16608,33,131,-152
3388625340,3888,-76,16564,11,160,-131
3388627045,4144,792,16052,109,209,-177
3388628752,4524,1316,15944,-19,143,-61
3388630459,4084,940,16120,-41,177,-69
3388632190,3680,1172,16152,-35,178,-86
3388633908,3412,952,16280,-122,79,-6
3388635629,3796,960,16304,-158,123,61
3388637339,3708,308,16536,-176,145,162
3388639049,4168,-860,16052,9,169,-75
3388640758,4872,172,16200,-54,165,-110
3388642537,4008,180,16388,64,392,-212
3388644248,3360,648,16624,83,327,-163
3388645948,2756,332,16568,82,105,-212
3388647638,3336,1644,16444,-22,78,5
3388649328,3764,1080,16236,-22,156,67
3388651020,4320,776,16160,11,92,64
3388652769,4040,760,16240,-105,52,-91
3388654474,3712,964,16400,-85,129,62
3388656183,3800,624,16696,-81,103,62
3388657893,3688,-372,16364,-56,30,30
3388659601,3832,-1328,16112,54,159,-118
3388661307,3976,-1412,16072,186,208,-180
3388663037,4152,320,16356,205,160,-328
3388664749,4160,2148,15620,27,128,-128
3388666456,3856,2388,16568,9,220,-50
3388668164,4048,2296,16588,-63,108,68
3388669874,3056,512,16492,-105,-53,19
3388671579,3216,488,16760,-73,50,-11
3388673308,3540,556,16976,-61,25,65
3388675016,4044,112,16156,-32,-47,93
3388676723,4932,-340,16008,-15,129,-37
3388678432,4688,-124,15952,107,135,-214
3388680164,3916,180,15960,98,74,-247
3388681894,2796,1176,16144,41,93,-324
3388683689,3104,2492,16844,-67,132,-96
3388685373,4348,540,16080,-54,-60,175
3388687059,4800,-116,16428,-62,91,-88
3388688753,3616,864,16892,-225,8,-46
3388690435,3512,312,16336,-30,-10,-120
3388692100,3020,1396,16464,-32,-82,-91
3388693823,4160,416,16264,-173,65,82
3388695489,4068,484,16044,-135,65,39
3388697156,4600,-96,15432,-84,6,-6
3388698820,4816,776,16012,-99,98,-174
3388700483,4204,608,16312,-127,186,-96
3388702145,3984,-64,16080,-61,165,-117
3388703849,3376,916,16576,-49,70,-207
3388705555,3492,-40,16860,-123,67,-109
3388707283,3332,484,16896,-41,100,-174
3388708996,3856,888,16348,-61,-120,47
3388710704,4444,1028,15832,-132,-23,-60
3388712410,5044,692,15444,-164,111,102
3388714157,5312,480,15376,-119,173,57
3388715869,4876,4,15684,-160,206,2
3388717577,4260,-420,15876,-72,311,-153
3388719290,3636,4,16696,1,282,-169
3388720998,3612,-12,16772,-9,132,-30
3388722706,3384,116,16624,13,174,-172
3388724417,3984,1500,16196,45,79,-97
3388726124,4432,1188,16132,-11,-14,7
3388727830,4960,1356,15860,-89,111,-77
3388729537,4416,308,15556,-135,298,-68
3388731243,3724,540,15776,-84,241,-120
3388732948,3616,-228,16096,-95,92,4
3388734681,3592,264,16708,-46,188,-99
3388736391,4012,-204,16452,2,170,45
3388738098,4304,-24,16052,75,190,-71
3388739804,4576,960,16060,-3,229,-183
3388741510,3648,992,16348,-7,298,-98
3388743215,3240,1136,16500,-13,203,-69
3388744949,3248,388,16184,-74,18,49
3388746660,3264,244,16284,-44,162,-71
3388748367,4336,140,16076,32,84,-8
3388750075,4360,52,16340,40,73,-97
3388751780,3916,556,16260,-70,103,-47
3388753487,3316,528,16536,11,162,-108
3388755217,3472,956,16804,16,64,-58
3388756925,4232,244,16304,-26,92,34
3388759790,4200,240,16268,78,159,-88
3388761539,3684,0,16132,94,70,-162
3388763256,3220,1244,16212,42,105,-82
3388764966,3532,1188,16468,25,138,-15
3388766675,3808,1752,16196,-16,0,35
3388768372,3924,348,16304,-48,40,58
3388770073,4132,412,16208,13,122,-73
3388771777,3992,544,16240,-10,43,-26
3388773474,3572,260,16216,9,86,-123
3388775168,3700,576,16528,-30,114,-101
3388776860,3940,420,16128,-22,72,-52
3388778561,4432,828,15864,-44,66,-136
3388780270,3600,712,16256,-42,133,-194
3388781975,2916,1040,16516,3,154,-265
3388783681,3160,956,16664,-91,-78,35
3388785387,4304,884,16340,-65,32,-25
3388787122,4144,736,16740,-151,63,64
3388788831,3980,112,16440,-90,-33,-49
3388790538,4100,1328,16076,-79,-31,-63
3388792245,4080,456,16108,-127,163,6
3388793949,3960,500,16088,-95,198,-74
3388795656,3836,816,16016,-166,-1,-114
3388797384,4188,856,16068,-148,68,-42
3388799094,4376,444,16332,-131,176,-17
3388800800,4148,-500,16300,-75,109,-130
3388802506,3844,420,16200,-34,74,-273
3388804465,3860,728,16076,-45,89,-104
3388806299,4008,952,16132,-43,6,-52
3388808192,4192,596,15844,-116,-4,-3
3388809898,4156,672,15916,-106,98,-73
3388811609,4676,1188,15804,-140,86,9
3388813310,4948,948,15804,-190,127,-1
3388815004,4804,516,16084,-204,181,47
3388816691,4084,-1112,16276,-65,267,-23
3388818439,3504,-1056,16804,16,157,-245
3388820138,3736,444,16532,71,165,-202
3388821841,3900,944,16128,91,192,-110
3388823535,4532,1360,15972,-2,151,-57
3388825237,4572,956,15896,-76,146,-106
3388826936,4108,1132,16184,-83,197,-133
3388828690,3572,660,16248,-65,125,0
3388830401,3508,1064,16404,-140,93,-36
3388832117,3684,-36,16380,-121,172,126
3388833838,3896,-444,16284,-12,164,30
3388835575,4816,-264,15912,-1,130,-67
3388837303,4504,240,16352,34,345,-258
3388839046,4180,788,16268,46,396,-166
3388840762,3124,496,16204,56,204,-126
3388842479,2828,884,16272,-14,82,-143
3388844200,3540,1060,16372,31,112,64
3388845918,3956,488,16436,52,71,94
3388847634,4480,468,16316,-68,63,-40
3388849373,3712,540,16096,-118,94,-91
3388851089,3764,1208,16240,-81,135,61
3388852804,3712,264,16652,-86,95,56
3388854513,3948,-88,16108,-20,100,1
3388856222,3800,-2056,16004,202,198,-242
3388857975,4084,-600,16112,271,152,-356
3388859836,3592,572,16280,97,59,-214
3388861579,3612,2724,16416,27,208,-70
3388863298,4448,2228,16468,-80,110,65
3388865013,3764,1664,16512,-120,-2,109
3388866719,3140,-152,16612,-95,3,-23
3388868420,3440,288,16704,-37,17,24
3388870187,3832,400,16396,-52,-8,38
3388871885,3964,-92,16280,-90,-26,100
3388873594,4992,-188,16152,-2,146,-172
3388875302,4296,164,15956,60,87,-191
3388877011,3240,1304,16148,80,123,-370
3388878726,3024,2340,16380,-36,146,-280
3388880454,3372,1588,16492,-45,41,-19
3388882093,4164,612,16320,-93,-5,105
3388883735,4432,208,16736,-170,124,-52
3388885378,4048,820,16468,-167,-58,33
3388887051,3612,476,16176,-32,-31,-31
3388888744,3572,892,15848,-58,-38,55
3388890470,4084,292,16232,-153,188,-57
3388892169,3896,264,15816,-63,0,-62
3388893889,4536,684,15604,-43,-32,-110
3388895615,4584,712,16072,-176,126,-108
3388897337,4244,-216,16180,-63,241,-183
3388899054,3524,252,16380,-45,47,-206
3388900788,3540,244,16300,-66,30,-201
3388902497,3392,1044,16940,-93,98,-116
3388904220,3832,796,16364,-49,-86,-7
3388905928,3908,1064,16040,-67,-98,-24
3388907634,4352,584,15536,-177,72,-21
3388909341,5424,1724,15448,-191,155,84
3388911070,4888,-268,15960,-205,208,99
3388912779,4436,-932,15908,-154,251,-28
3388914485,3452,-1320,16552,32,259,-178
3388916193,3452,20,16776,89,118,-215
3388917898,3624,320,16744,54,109,-146
3388919607,3864,1232,16184,43,198,-161
3388921337,4972,1724,15784,-86,104,-22
3388923046,4540,1120,16024,-111,151,-45
3388924754,4200,860,16232,-108,176,-65
3388926461,3192,472,16148,-117,192,-56
3388928171,3136,180,16400,-107,73,43
3388929880,3512,-144,16292,-79,93,59
3388932493,5088,-392,16024,65,224,-88
3388934233,4668,544,16640,60,284,-194
3388935946,3484,836,16392,34,265,-106
3388937660,3044,740,16444,36,222,-151
3388939379,2896,1612,16420,-26,78,-66
3388941089,3592,700,16072,-79,104,104
3388942868,3800,344,16296,-47,169,61
3388944569,4416,-212,16296,-45,73,-82
3388946316,3820,860,16108,-48,45,-61
3388948125,3552,228,16092,-36,186,-30
3388949851,3420,420,16668,17,164,-133
3388951548,4032,-112,16380,16,9,26
3388953329,4320,-320,16076,130,173,-168
3388955019,4732,636,16240,91,177,-181
3388956700,3992,820,16244,52,150,-150
3388958377,2812,1408,16524,25,101,-49
3388960099,3544,1224,16404,-31,68,43
3388961781,3664,980,16424,-46,41,-7
3388963512,3760,712,16476,-50,-38,84
3388965212,4036,36,16264,18,62,-42
3388966919,4244,244,16340,-48,76,-41
3388968626,4032,-200,16172,-25,63,-137
3388970333,3860,908,16416,-48,65,-52
3388972064,3984,32,15572,58,156,-204
3388973772,3968,1288,15940,48,115,-278
3388975480,4016,1056,16300,-48,68,-145
3388977187,3160,1512,16732,-9,88,-85
3388978895,3836,372,16448,-67,-12,-81
3388980600,4252,1112,16324,-107,49,-77
3388982307,4080,500,16084,-183,50,107
3388984062,3952,320,15864,-22,-24,-12
3388985771,4196,540,15924,-46,-26,-50
3388987478,3776,812,16072,-155,103,0
3388989186,3848,496,16248,-64,111,-157
3388990898,4220,980,15728,-171,-10,-56
3388992607,4184,356,16040,-176,47,-71
3388994315,4248,256,16348,-132,165,-56
3388996051,4028,-180,16352,-20,97,-271
3388997760,3636,572,16200,-41,42,-261
3388999467,3636,608,16528,-90,89,-131
3389001173,3852,1116,16436,-61,39,-7
3389002879,3876,236,15960,-90,-42,4
3389004587,4104,728,15748,-99,25,-31
3389006293,4656,992,15612,-119,150,26
3389007999,4772,572,15748,-147,145,48
3389009735,4652,36,16196,-163,151,-11
3389011443,4124,-612,16488,-71,226,-70
3389013150,3636,-716,16568,50,190,-208
3389014881,3596,256,16748,20,84,-223
3389016588,3752,868,16436,26,140,-180
3389018294,4384,1480,15700,10,156,7
3389019999,4944,776,15828,-36,217,-132
3389021732,4012,1288,16192,-120,141,5
3389023439,3584,480,16228,-110,195,1
3389025172,3372,968,16320,-61,162,-6
3389026881,3556,40,16360,-111,109,32
3389028588,3664,40,16512,-72,126,41
3389030295,4680,-304,16236,8,194,-28
3389032026,4760,132,16296,21,235,-168
3389033747,3340,524,16580,-13,262,-177
3389035553,3012,472,16248,45,236,-151
3389037270,3004,900,16480,29,100,-157
3389038972,3448,824,16368,-78,50,37
3389040688,4368,512,16172,-2,174,2
3389042394,4488,296,16536,-16,114,12
3389044096,3972,340,16340,-8,51,-158
3389045959,3236,1140,16656,-103,107,-21
3389047713,3540,568,16644,-15,99,3
3389049415,4112,656,15928,-8,50,74
3389051087,3772,-1188,15936,96,96,-129
3389052758,4420,-248,16236,192,190,-269
3389054431,4052,420,16616,113,138,-189
3389056101,3184,1700,15636,85,117,-122
3389057785,3552,2108,16552,-11,97,16
3389059477,4264,1952,16408,-59,27,80
3389061169,3840,664,16356,-98,34,50
3389062859,3480,304,16316,-51,93,-23
3389064558,3600,64,16688,-17,9,-29
3389066314,3488,172,16504,-54,-22,10
3389068053,4080,-244,16140,-11,112,-152
3389069765,4412,152,16060,27,107,-74
3389071472,4388,152,15888,82,103,-219
3389073179,3744,1840,16020,-4,85,-250
3389074891,2744,1596,16792,-45,99,-148
3389076623,3180,1928,16400,-43,13,14
3389078329,3888,172,16204,-119,-27,103
3389080068,4120,324,16744,-179,96,-24
3389081777,4144,76,16036,-54,-64,-56
3389083483,3908,548,15804,-19,-68,-46
3389085190,3880,704,15760,-117,117,-15
3389086922,3644,464,16548,-136,137,-95
3389088629,4192,1392,15816,-120,-18,-143
3389090333,4240,1104,16164,-184,-5,-56
3389092064,4468,184,16300,-123,178,-99
3389093773,3824,-432,16532,-56,110,-117
3389095480,3636,-464,16188,-13,61,-224
3389097211,3680,868,16560,-61,105,-158
3389098919,3548,856,16644,-6,15,-69
3389100625,4160,1344,16036,-126,-110,103
3389102332,4368,764,15608,-176,3,58
3389105214,5044,1064,15776,-184,167,23
3389106989,4612,-40,16052,-167,137,3
3389108705,3964,-1096,16424,-114,254,-52
3389110408,3732,-1316,16416,-42,232,-162
3389112105,3684,-440,16544,76,138,-225
3389113798,3788,444,16432,81,140,-164
3389115490,4308,1192,16076,100,190,-186
3389117183,4784,1856,16196,-66,149,-39
3389118943,3832,1120,16324,-67,171,-86
3389120648,3584,872,16064,-133,162,12
3389122356,3388,532,16168,-114,134,-17
3389124089,3516,724,16416,-140,68,93
3389125798,4164,-744,16272,-101,125,163
3389127504,4440,-1056,15884,19,179,31
3389129273,4796,-140,16372,77,257,-252
3389130972,3860,692,16512,79,252,-162
3389132664,2956,816,16552,42,244,-166
3389134365,2692,1164,16448,3,143,-143
3389136064,3300,1320,16324,-54,17,-12
3389137754,4020,580,16512,-71,124,58
3389139506,4088,128,16492,-44,84,-164
3389141211,3840,1084,16188,-86,23,-81
3389142918,3536,52,16184,-71,66,-20
3389144627,3908,548,16044,2,136,-8
3389146333,3936,-432,16084,-6,74,11
3389148103,4168,-352,15984,122,129,-147
3389149841,4424,112,15932,140,229,-227
3389151550,3764,1016,16124,51,145,-118
3389153257,3024,1040,16648,45,119,-190
3389154965,3384,1604,16540,-44,88,82
3389156679,3400,788,16676,-31,35,-17
3389158390,3744,768,16488,-61,-27,43
3389160111,4056,28,16472,-39,14,-53
3389161820,3852,56,16352,-29,41,38
3389163525,3728,168,16300,30,85,-206
3389165235,3836,852,16184,15,25,-103
3389166940,4232,104,15820,23,166,-129
3389168647,3932,1492,16008,44,130,-185
3389170379,3848,1280,16380,-2,55,-151
3389172091,3204,1668,16636,-78,36,-114
3389173799,3880,376,16252,-61,55,61
3389175507,3928,600,16740,-135,73,-71
3389177214,3576,528,16800,-168,-24,-60
3389178920,3864,352,16188,-51,-24,-28
3389180649,4096,768,15864,-95,-11,23
3389182359,3932,584,15856,-159,41,17
3389184083,3744,476,16204,-121,168,-168
3389185793,4260,716,15864,-84,-29,-66
3389187499,4308,568,16204,-145,62,-160
3389189206,4428,684,16448,-175,150,-133
3389190935,4016,16,16308,-10,184,-199
3389192644,3616,500,16208,-27,32,-189
3389194351,3836,800,16428,-94,21,-165
3389196083,4044,1312,16412,-108,116,9
3389197825,3904,196,15952,-90,-41,120
3389199665,4136,464,16020,-101,60,-94
3389201572,4616,860,15752,-90,112,5
3389203285,4640,680,15828,-72,124,35
3389204985,4696,476,15992,-168,178,10
3389206677,3960,-684,16396,-80,249,-142
3389208360,3960,-412,16416,14,228,-181
3389210044,3760,-172,16480,46,107,-210
3389211786,3776,960,16392,1,209,-195
3389213486,4028,1180,15992,4,120,4
3389215205,4444,1016,15888,19,104,-24
3389216924,4440,1172,15928,-122,178,-49
3389218638,3836,896,15948,-43,212,-58
3389220345,3448,540,16156,-97,69,122
3389222078,3448,-76,16548,-96,84,90
3389223790,3688,28,16524,-53,212,-6
3389225507,4164,-168,16420,32,142,-68
3389227218,4380,212,16096,53,111,-86
3389228926,4260,584,16348,-31,340,-200
3389230634,3384,400,16160,21,212,-152
3389232386,2760,824,16588,-36,61,-122
3389234162,2996,560,16340,-55,57,-54
3389235900,3624,1092,16424,-12,147,-17
3389237617,4228,92,16352,10,38,39
3389239312,4268,192,16404,27,41,-20
3389241006,3948,380,16400,-49,180,-31
3389242728,3644,1300,16304,-5,99,-84
3389244426,3916,416,16380,-57,58,64
3389246122,4200,-48,16016,-17,133,44
3389247818,3880,-832,16260,133,209,-148
3389249509,4020,56,16136,131,95,-260
3389251209,3224,556,16616,109,20,-164
3389252989,3252,1764,16240,47,195,-109
3389254757,4088,1708,16128,-37,31,43
3389256490,3792,1484,16596,-146,3,39
3389258191,3868,524,16124,-129,11,51
3389259883,3640,564,16484,-27,83,-57
3389261575,3416,-96,16320,-60,9,-7
3389263342,3700,272,16328,-17,122,-62
3389265058,4108,368,16048,30,63,-3
3389266770,4796,360,15684,42,52,-165
3389268477,3932,1356,16124,-19,152,-217
3389270185,3448,1312,16260,-34,169,-155
3389271892,2820,1204,16728,-19,-29,-92
3389273621,3900,760,16584,-99,-53,9
3389275338,3744,424,16768,-129,81,33
3389277890,4432,188,15860,-92,-86,-37
3389279613,4072,864,15756,-116,1,-67
3389281320,4040,376,15908,-119,198,-44
3389283026,4000,624,16148,-95,191,-141
3389284743,3928,1432,16064,-158,-18,-45
3389286449,4224,540,16224,-138,109,-73
3389288144,4324,584,16448,-97,148,-61
3389289832,4064,-872,16264,-55,74,-142
3389291523,3720,520,16376,-22,75,-244
3389293215,3768,680,16480,-35,121,-86
3389294917,3640,956,16372,-17,50,-37
3389296632,3960,844,16192,-123,-76,12
3389298350,4396,804,15620,-116,107,-32
3389300093,4656,1160,15720,-103,180,-64
3389301802,4916,672,15832,-222,127,55
3389303510,4052,-104,16300,-204,201,-22
3389305229,3720,-1728,16448,-36,217,-55
3389306946,3536,-1216,16488,57,215,-259
3389308654,3716,16,16392,57,108,-152
3389310360,4136,1300,16044,115,200,-184
3389312093,4464,1908,15840,69,150,-65
3389313805,4472,1040,16208,-44,169,-123
3389315545,3848,1480,16396,-116,164,-5
3389317266,3420,812,16140,-97,148,40
3389318979,3320,680,16168,-124,107,42
3389320688,3468,72,16392,-134,40,130
3389322394,4572,-984,15956,32,150,-3
3389324102,5184,-632,15976,47,207,-147
3389325852,4432,-112,16364,84,282,-218
3389327564,3372,1072,16528,65,283,-165
3389329272,2868,704,16112,49,115,-141
3389330978,3100,1404,16344,14,98,-158
3389332684,3664,1496,16068,-86,84,53
3389334395,4276,760,16452,-44,130,2
3389336127,3896,576,16256,-122,4,-10
3389337838,3380,572,16356,-102,-23,-39
3389339543,3408,72,16692,-65,72,61
3389341250,4048,-876,16280,27,63,7
3389342955,4232,-996,15764,73,129,-92
3389344660,4324,-544,15996,174,228,-241
3389346393,4136,880,15948,190,118,-222
3389348104,3564,1812,16548,-2,142,-96
3389349811,3396,1840,16408,-48,127,-50
3389351517,3412,1564,16544,-90,139,72
3389353223,3364,-152,16324,-36,-44,10
3389354929,3472,72,16840,-14,-27,-93
3389356660,3808,208,16388,-64,39,53
3389358368,4124,252,16012,40,67,-80
3389360075,4276,436,16232,1,56,-109
3389361782,4284,328,16172,7,111,-115
3389363488,3664,968,16016,39,120,-173
3389365193,3320,1344,16352,10,47,-185
3389366921,3144,1588,16596,-40,67,-169
3389368630,3940,888,16208,-37,28,89
3389370338,4332,436,16760,-77,142,-161
3389372085,3664,640,16420,-242,-74,65
3389373799,3408,16,16360,-150,-7,-50
3389375508,3748,1360,15892,-78,2,45
3389377239,4124,-12,16272,-149,20,-41
3389378948,3920,416,16120,-160,82,-109
3389380659,4428,600,15868,-72,75,-63
3389382367,4248,616,15944,-81,27,-113
3389384077,4456,-100,16372,-168,156,-149
3389385784,3972,112,16240,-78,251,-256
3389387515,3568,1104,16380,-43,47,-48
3389389226,3780,616,16488,-73,-13,-110
3389390934,3832,968,16612,-122,19,-77
3389392641,3908,640,16212,-79,60,15
3389394350,4016,224,15912,-61,-12,-14
3389396081,4448,512,15780,-172,77,-15
3389397811,4520,340,15692,-129,132,41
3389399528,4888,712,15664,-109,146,-3
3389401238,4592,-700,16164,-96,202,-101
3389402946,4100,-500,16508,-43,294,-240
3389404654,3504,208,16556,26,195,-110
3389406360,3628,772,16428,43,106,-243
3389408091,3828,864,16252,-92,156,26
3389409804,4040,608,15936,-10,156,-51
3389411514,4940,1072,15872,-74,101,-35
3389413220,4256,708,15912,-102,203,-63
3389414925,3944,800,16036,-75,239,2
3389416631,3420,196,16304,-45,157,-13
3389418360,3496,96,16556,-29,118,-31
3389420093,3880,284,16576,-54,214,-25
3389421802,4188,-104,16308,10,177,-29
3389423509,4560,1036,16432,-57,216,-109
3389425218,3620,180,16240,-45,233,-134
3389426925,2936,824,16356,15,150,-107
3389428656,3060,312,16368,-24,55,-27
3389430364,3356,896,16424,-30,60,-54
3389432075,4008,-352,16224,30,127,36
3389433788,4284,92,16332,94,123,-80
3389435500,4428,360,16104,-35,38,16
3389437217,3196,668,16328,-5,167,-101
3389438956,3540,1152,16540,-17,111,-15
3389440666,4044,1036,16060,-39,84,51
3389442374,4236,-632,15804,56,146,-63
3389444084,4220,-548,16220,84,181,-161
3389445791,3804,-540,16472,94,103,-250
3389447497,2924,1500,16272,65,37,-147
3389450350,3820,1784,16204,7,73,-35
3389452097,3792,804,16372,-83,-32,66
3389453810,3868,624,16344,-5,35,-80
3389455519,4164,956,16072,-68,110,8
3389457227,3708,344,16044,-44,111,-74
3389458936,3696,244,16312,-95,121,18
3389460642,3668,56,16528,-26,79,-14
3389462339,4312,64,15916,9,20,-88
3389464061,4292,1092,16156,11,116,-287
3389465755,3936,1544,16456,-24,160,-228
3389467446,3000,916,16512,-18,5,-46
3389469137,3488,392,16600,-62,-58,-82
3389470895,3648,892,16936,-196,1,70
3389472600,3824,56,16212,-127,-14,53
3389474311,4344,968,15808,-45,-10,-133
3389476050,4372,432,15832,-168,77,-12
3389477760,4040,516,16020,-106,212,-128
3389479469,3824,860,16016,-108,61,-72
3389481198,3860,1272,16116,-157,57,-113
3389482907,4168,296,16584,-172,180,-2
3389484616,4060,-96,16500,-86,158,-48
3389486322,3852,-344,16208,-25,32,-193
3389488102,3860,596,16184,-42,47,-184
3389489847,4024,920,16364,14,75,-67
3389491569,4052,1140,16328,-73,0,13
3389493313,4184,456,15848,-136,-4,-44
3389495040,4596,1352,15656,-146,173,-22
3389496755,4888,1176,15684,-168,171,13
3389498464,4564,728,16220,-207,187,-20
3389500173,3876,-564,16324,-162,213,-7
3389501928,3492,-916,16600,14,202,-145
3389503676,3684,-496,16560,10,143,-182
3389505478,3960,500,16096,79,125,-184
3389507293,4560,1324,15808,36,189,-18
3389509031,4468,732,15884,6,150,-105
3389510741,4192,944,16276,-8,126,-161
3389512465,3428,1152,16340,-113,147,-11
3389514163,3476,896,16280,-72,155,-5
3389515845,3540,256,16580,-153,77,124
3389517540,3816,-432,16404,-103,92,43
3389519227,4892,84,16008,-7,179,-49
3389520909,4604,-296,16360,29,281,-204
3389522655,3840,252,16492,23,292,-233
3389524359,2884,296,16528,53,231,-112
3389526059,3104,1444,16416,61,85,-159
3389527759,3740,1028,16392,-15,65,23
3389529454,4192,1016,16076,12,180,-11
3389531146,4496,900,16484,-68,85,32
3389532908,3460,896,16324,-88,25,-58
3389534620,3236,916,16680,-124,88,26
3389536331,3964,-184,16148,-33,105,49
3389538051,3840,-1168,15960,51,75,-42
3389539765,4104,-1040,16376,159,183,-276
3389541477,4240,-216,16388,183,173,-264
3389543216,4208,1852,15732,85,127,-160
3389544950,3712,1708,16284,-8,196,-95
3389546699,3316,1768,16592,-78,105,101
3389548463,2992,308,16340,-58,-35,138
3389550200,2972,604,16664,11,-59,-95
3389551915,3836,136,16568,-57,40,41
3389553751,4344,780,16048,-12,45,66
3389555480,4724,28,16024,-29,62,2
3389557184,4364,228,16164,18,91,-118
3389558882,3340,276,15868,64,172,-246
3389560579,3032,1044,16096,84,94,-283
3389562277,3376,1980,16764,-43,15,-160
3389564069,4136,1104,16152,-78,20,134
3389565783,4276,152,17020,-82,140,-285
3389567497,3596,1044,17088,-170,-22,-67
3389569208,3472,-268,16292,-99,55,-145
3389570920,3596,2024,16000,-85,-13,66
3389572629,4148,568,16056,-109,-3,-19
3389574339,4136,768,15868,-162,49,30
3389576088,4632,76,15512,-50,141,-154
3389577870,4440,1188,15956,-144,44,-53
3389579675,3988,80,16360,-150,149,-80
3389581431,4036,180,16224,-80,263,-183
3389583157,3368,420,16672,-71,68,-51
3389584874,3740,36,16680,-23,-20,-179
3389586565,3768,708,16776,-58,-10,-180
3389588290,3876,784,16068,-63,-12,-15
3389590032,4256,960,15872,-143,-7,-26
3389591772,4824,152,15524,-160,120,34
3389593483,4764,232,15452,-93,238,-65
3389595167,4592,336,16004,-155,172,-4
3389596870,4180,72,16448,-74,243,-112
3389598571,3568,-136,16472,-11,218,-56
3389600264,3412,-184,16852,-3,153,-154
3389601965,3656,672,16804,-19,50,-97
3389603661,4056,836,16156,-1,159,-38
3389605421,4552,836,15800,6,119,-20
3389607130,4820,1060,15780,-23,106,-117
3389608843,4100,584,15612,-73,200,-104
3389610555,3516,752,15932,-69,198,-30
3389612264,3504,172,16320,-84,142,-10
3389613972,3560,648,16480,-80,125,-2
3389615748,4140,-452,16112,15,196,19
3389617461,4460,68,16276,60,226,-183
3389619160,4428,1212,16496,-77,169,-62
3389620853,3420,560,16340,0,259,-116
3389623279,3324,224,16332,-4,121,-26
3389624981,3296,668,16104,-4,39,-114
3389626694,3984,492,16088,8,158,-1
3389628388,4028,140,16208,72,143,-4
3389630079,4184,480,16448,37,85,-104
3389631770,3552,568,16512,-58,77,-47
3389633475,3776,696,16340,-11,193,-79
3389635186,4140,1060,16300,-57,86,58
3389636959,4000,-324,15992,9,137,-99
3389638670,4024,-456,16132,76,176,-85
3389640381,3980,-492,16064,121,142,-180
3389642088,3016,940,16300,91,36,-214
3389643793,3256,1320,16492,15,118,13
3389645511,3952,1740,16192,-4,34,14
3389647248,4008,1072,16384,-73,-45,54
3389648956,3972,936,16436,-37,69,-104
3389650673,4040,456,16552,-83,89,97
3389652387,3516,-184,16284,-26,71,-30
3389654096,3544,288,16636,-62,48,-75
3389655811,3940,184,16008,19,83,-75
3389657583,4604,812,15732,-23,110,-100
3389659282,4272,568,16264,-56,129,-201
3389660982,3132,1568,16552,-66,79,-181
3389662678,3304,684,16580,-39,-48,-10
3389664371,3916,592,16224,-21,-13,-46
3389666070,4160,836,16676,-151,50,24
3389667821,4232,160,15912,-25,-3,-84
3389669525,4272,1328,15692,-80,-40,6
3389671245,4224,788,15884,-146,17,54
3389672961,3952,888,16344,-125,211,-115
3389674673,3876,696,15896,-138,37,-59
3389676393,4040,724,15896,-120,-1,-88
3389678165,4020,368,16424,-189,99,-62
3389679867,3924,-380,16588,-20,108,-139
3389681585,3764,-60,16416,-17,55,-247
3389683291,3744,448,16256,-41,38,-216
3389684987,3940,1012,16212,-34,100,-50
3389686688,3940,808,16176,-86,-11,21
3389688447,4308,904,15792,-123,53,-123
3389690153,4176,1236,15772,-154,114,-60
3389691862,4828,936,15648,-137,163,-7
3389693572,4676,556,15860,-202,152,79
3389695280,4384,-496,16240,-190,182,18
3389696988,3784,-764,16460,-41,258,-69
3389698719,3860,-568,16656,33,110,-188
3389700429,4020,552,16144,47,158,-167
3389702135,4016,1044,16128,43,206,-132
3389703842,4352,1028,16028,40,139,-63
3389705550,3884,940,16216,-60,97,-103
3389707257,3632,1164,16140,-99,130,-86
3389708990,3552,1096,16084,-86,152,-19
3389710698,3748,688,16308,-166,85,151
3389712405,4112,-432,16268,-92,180,-58
3389714112,4228,-228,16316,-54,202,-59
3389715823,4804,-312,16132,42,222,-140
3389717529,3880,420,16328,10,272,-195
3389719260,3376,112,16384,3,275,-161
3389720967,2900,932,16564,73,136,-174
3389722672,3432,1100,16468,-7,14,-19
3389724413,3940,808,16492,-26,159,24
3389726143,4080,684,16488,-11,157,24
3389727859,4068,844,16356,-68,14,-17
3389729569,3684,924,16364,-150,109,34
3389731277,3720,520,16612,-122,138,45
3389732984,3992,-300,16084,5,91,-46
3389734696,3660,-1664,16004,76,89,-115
3389736404,4020,-276,16360,241,263,-376
3389738112,3844,712,16392,173,148,-249
3389739822,4104,2076,15624,83,117,-133
3389741545,4064,2352,16300,-66,203,-5
3389743262,3300,1056,16504,-55,62,39
3389744971,3036,724,16408,-76,-35,49
3389746678,3272,344,16636,-76,3,13
3389748386,3736,232,16064,-27,51,74
3389750124,3784,168,16284,-23,-13,68
3389751835,4836,-376,16008,32,41,-106
3389753543,4392,380,16176,37,159,-199
3389755257,3136,588,15848,92,118,-313
3389756965,3036,1792,16116,53,124,-342
3389758672,3232,1808,16648,-134,31,-3
3389760402,4520,724,16112,-34,54,86
3389762112,4876,124,16420,-93,145,-69
3389763819,3700,940,16660,-209,-56,-30
3389765527,3460,244,16024,-22,87,-87
3389767236,3888,1548,15716,-120,-33,152
3389768943,4200,588,16072,-182,-13,110
3389770673,3896,200,16024,-132,53,15
3389772383,5116,328,15772,-36,109,-201
3389774091,4608,1032,16196,-107,74,-182
3389775798,4184,148,15968,-132,162,-86
3389777505,3524,456,16552,-47,223,-253
3389779210,3400,204,16756,-78,14,-119
3389780943,3424,432,16888,-94,21,-182
3389782656,3536,732,16520,-63,-23,-34
3389784364,4044,1192,15988,-78,-76,-68
3389786069,4256,1148,15664,-149,-65,26
3389787777,5156,876,15116,-146,162,10
3389789483,5260,268,15308,-148,262,112
3389791214,4528,-308,15952,-104,224,-134
3389792923,3960,-244,16284,-93,244,-154
3389795788,3488,260,16632,57,216,-108
3389797540,3536,484,16604,9,92,-129
3389799256,4112,1568,16204,7,94,-19
3389800965,4584,1132,16048,-10,80,-4
3389802751,4728,988,15992,-106,91,-42
3389804462,4412,780,15840,-125,249,-155
3389806165,3400,20,15772,-72,177,53
3389807859,3436,-312,16052,-39,167,-46
3389809553,3388,312,16744,-91,86,6
3389811247,4144,-124,16300,76,250,-80
3389813003,4600,376,16096,85,247,-105
3389814710,4372,816,16388,24,222,-194
3389816421,3384,1152,16468,-59,253,-71
3389818127,3180,596,16392,-19,104,-5
3389819834,3208,336,16240,-26,55,-44
3389821541,3308,408,16200,-59,84,-26
3389823273,4264,-64,16116,56,104,-27
3389824983,4452,212,16076,54,96,-95
3389826691,3796,300,16332,-56,108,-68
3389828398,3656,1120,16424,6,205,-77
3389830104,4160,620,15920,-8,18,29
3389831810,4152,128,16104,17,61,-50
3389833541,3888,-144,16524,52,229,-108
3389835260,3944,-76,16300,119,134,-151
3389836974,3372,476,16432,92,68,-173
3389838715,3228,1284,16272,21,86,-85
3389840509,3668,1684,16432,-5,45,29
3389842339,3740,620,16464,-51,-36,102
3389844117,3964,404,16556,-23,44,-107
3389845807,4216,800,16316,-15,94,-16
3389847499,3848,0,16292,17,61,-96
3389849183,3612,456,16476,-79,68,-84
3389850853,3824,220,16192,-90,88,-81
3389852527,4484,1108,15592,5,93,-131
3389854209,4132,560,16104,-37,102,-197
3389855909,3480,964,16332,-37,106,-259
3389857616,2664,1092,16608,-53,-24,-3
3389859324,4064,860,16332,-18,7,-59
3389861030,4144,588,16528,-195,57,104
3389862736,3808,-172,16580,-145,43,-5
3389864447,4180,1032,16012,-52,-74,-25
3389866153,4012,552,16112,-103,35,-7
3389867860,4068,612,16088,-125,185,-34
3389869568,3908,864,16056,-111,99,-135
3389871274,4028,832,15872,-131,-36,-32
3389872982,4140,596,16180,-157,76,-85
3389874718,4248,-364,16572,-110,167,-70
3389876429,3832,212,16412,-35,60,-243
3389878137,3680,320,16284,-37,4,-119
3389879846,3812,940,16352,-44,101,-202
3389881553,4012,992,16340,-94,-4,79
3389883260,4052,720,15964,-51,4,-56
3389884991,4424,816,15908,-155,137,-3
3389886701,4628,1052,15884,-127,150,-56
3389888408,4980,864,15780,-204,122,121
3389890115,4332,-712,16164,-115,232,29
3389891822,3944,-1032,16324,-38,301,-75
3389893528,3388,-724,16724,36,133,-256
3389895257,3900,440,16528,74,65,-195
3389896965,4376,1456,16024,-1,183,-47
3389898675,4504,1104,15904,-31,172,0
3389900383,4276,1320,16176,-62,151,-128
3389902090,3808,504,16176,-96,155,-71
3389903797,3440,760,16328,-40,180,-143
3389905530,3368,844,16296,-157,89,115
3389907242,3648,-20,16416,-79,131,63
3389908949,4504,-580,16204,3,188,-39
3389910655,5036,-124,16060,40,190,-175
3389912362,4472,668,16440,-6,245,-116
3389914068,3052,52,16272,55,292,-137
3389915778,2740,420,16428,65,224,-181
3389917487,2960,1072,16368,6,43,-126
3389919188,3808,840,16296,10,103,73
3389920901,4356,292,16552,-33,85,47
3389922659,4272,12,16448,-51,21,-57
3389924445,3556,1184,16376,-115,89,-106
3389926299,3776,728,16568,-69,161,4
3389928060,3848,564,16072,-44,39,40
3389929762,3828,-688,15824,-32,46,101
3389931455,3952,-1420,15924,260,214,-293
3389933147,4088,376,16456,125,101,-241
3389934848,3656,1180,16056,103,43,-244
3389936606,3620,2624,16616,4,233,-11
3389938316,4080,1856,16472,-86,62,97
3389940055,3140,144,16532,-98,-11,28
3389941765,3016,-100,16384,-64,41,-68
3389943473,3672,472,16688,12,-1,-33
3389945191,3808,308,16144,-83,-50,116
3389946930,4948,-216,15952,-12,184,-124
3389948643,5016,28,16296,25,217,-163
3389950351,3836,4,15840,107,58,-291
3389952081,2932,2128,16072,3,130,-298
3389953789,3240,2264,16572,-74,179,-119
3389955509,3552,1816,16264,-43,-52,112
3389957248,4532,-448,16528,-110,86,-42
3389958961,3792,1180,16876,-183,4,-20
3389960668,3984,168,16308,-148,-89,149
3389962375,3132,972,16236,-6,-48,-88
3389964088,4168,568,16092,-168,123,15
3389965811,3940,300,16004,-83,26,-23
3389968398,4964,724,15828,-93,15,-184
3389970161,4284,456,15972,-170,190,-135
3389971923,3988,200,16408,-100,154,-160
3389973682,3724,148,16408,-73,85,-190
3389975426,3520,480,16660,-115,81,-171
3389977150,3300,484,16652,-57,39,-76
3389978943,3972,1180,16304,-21,-116,-57
3389980645,4176,1320,15960,-122,-89,36
3389982338,4672,980,15340,-125,121,-69
3389984055,5384,1096,15348,-207,150,148
3389985757,5304,-112,15552,-186,181,118
3389987461,4244,-924,16268,-132,298,-84
3389989236,3424,-804,16764,46,210,-197
3389990952,3276,184,16960,36,100,-136
3389992667,3368,368,16696,3,172,-106
3389994383,3780,1052,16236,59,104,-121
3389996108,4784,1620,16012,-96,21,-12
3389997824,4748,576,15964,-88,224,-71
3389999556,4304,780,16132,-47,272,-132
3390001263,3420,296,15948,-134,98,-11
3390002970,3516,544,16336,-91,174,-33
3390004687,3568,76,16532,-88,189,80
3390006404,4196,-296,16156,54,119,-39
3390008117,4948,104,16480,5,222,-90
3390009853,4096,944,16492,56,337,-157
3390011565,3580,928,16484,36,268,-116
3390013271,2740,924,16644,-29,70,-118
3390015006,3424,796,16372,-83,80,19
3390016735,3600,168,16376,-14,102,19
3390018444,4236,-132,16208,1,82,-72
3390020182,4248,648,16144,-77,68,-68
3390021892,3612,332,16136,27,147,-56
3390023600,3368,912,16688,19,133,-92
3390025317,3988,288,16340,-33,36,18
3390027034,4168,-212,15892,83,195,-65
3390028745,4416,-76,16280,127,168,-220
3390030479,4324,720,16260,70,131,-163
3390032189,3168,684,16272,28,144,-74
3390033907,3340,1368,16344,64,107,-13
3390035638,3556,1136,16528,-16,30,-40
3390037365,3816,1064,16312,-65,-29,48
3390039082,3948,196,16300,43,79,-31
3390040869,4032,460,16332,-50,2,-11
3390042572,3936,4,16296,-48,15,-117
3390044301,3644,812,16628,-18,133,-66
3390046014,3976,68,15944,14,71,-123
3390047711,4100,1368,15868,-56,47,-135
3390049405,4292,984,16028,-46,152,-157
3390051168,3192,1540,16536,10,105,-135
3390052874,3244,396,16640,-70,-84,-48
3390054585,3828,836,16336,-82,-15,-93
3390056293,4160,756,16620,-138,107,87
3390058000,3820,128,16248,-71,-94,-6
3390059709,4024,960,16060,-121,-1,-99
3390061442,4208,900,15848,-121,90,-10
3390063152,3916,664,16280,-60,127,-143
3390064862,4148,684,15868,-197,-18,-81
3390066568,4308,740,15816,-182,83,-123
3390068277,4200,528,16280,-165,107,41
3390069990,4284,-468,16452,-49,100,-245
3390071721,3828,484,16296,-90,106,-143
3390073430,3716,312,16292,-2,109,-131
3390075137,3736,1256,16496,-33,-35,-82
3390076844,3848,416,16340,-144,9,-20
3390078550,3892,752,15980,-110,111,-32
3390080261,4484,756,15872,-113,56,46
3390081989,4692,616,15548,-140,105,-10
3390083698,4480,252,16168,-149,253,-22
3390085405,4364,-60,16100,-79,239,-20
3390087115,3928,-580,16540,-18,151,-149
3390088821,3648,-484,16576,-38,202,-177
3390090528,3808,28,16416,49,233,-244
3390092259,4120,1284,15980,17,72,-45
3390093968,4524,916,16036,-41,167,-168
3390095674,4136,1216,16116,-82,226,-22
3390097380,3696,556,16180,-39,144,-20
3390099086,3404,1196,16312,-76,42,-48
3390100796,3628,300,16188,-142,177,56
3390102528,3896,56,16616,-43,165,63
3390104240,4232,-372,16312,-38,87,55
3390105949,4796,124,16040,-20,243,-151
3390107657,4112,336,16236,19,324,-154
3390109363,3472,340,16344,57,240,-149
3390111065,2744,516,16500,0,91,-149
3390112777,3132,844,16296,-34,160,-81
3390114486,3560,864,16440,20,119,-22
3390116195,4244,596,16536,-29,31,17
3390117904,4084,164,16316,-34,152,-68
3390119610,3376,1144,16552,-53,37,-14
3390121317,3800,988,16176,-74,39,47
3390123047,3928,712,16232,-67,83,14
3390124756,3976,-1364,15924,99,199,-24
3390126464,3604,-1332,16056,181,143,-219
3390128176,4112,-132,16392,150,84,-235
3390129886,3196,1396,15896,135,150,-174
3390131593,3620,2024,16516,13,72,-11
3390133322,4220,2060,16108,-35,31,10
3390135030,3636,1240,16372,-109,71,70
3390136737,3320,120,16460,-9,27,-43
3390138444,3496,460,16612,-33,-9,-85
3390140967,3656,-360,16332,-64,90,14
3390142687,4304,432,16236,25,38,-78
3390144397,4912,56,16088,-13,9,-81
3390146095,4152,936,15900,58,144,-304
3390147785,3320,1480,16244,27,184,-192
3390149477,3080,1964,16680,-73,-34,-58
3390151166,3604,1316,16416,-114,-73,97
3390152856,4316,172,16380,-96,162,15
3390154546,3788,592,16664,-137,-73,-13
3390156250,4032,316,16468,-112,-155,-17
3390157958,3772,1048,16052,-55,31,-12
3390159662,4004,360,16380,-125,172,-32
3390161368,4012,548,16364,-142,84,-81
3390163073,4016,1068,15840,-153,-33,-118
3390164778,4316,420,16008,-116,110,-62
3390166485,4292,224,16320,-137,78,-114
3390168193,4188,-352,16196,-87,88,-124
3390169903,3532,460,16300,13,160,-263
3390171608,3788,652,16640,-59,45,-91
3390173314,3472,964,16532,-49,-25,-113
3390175044,4068,1204,16140,-144,-32,113
3390176753,4108,736,15564,-97,87,21
3390178460,5048,1280,15608,-175,96,-29
3390180168,4992,984,15868,-225,143,14
3390181877,4364,-536,16012,-109,256,42
3390183584,3808,-1156,16440,-82,161,-107
3390185315,3688,-1180,16464,-3,134,-207
3390187024,3616,188,16840,35,203,-170
3390188730,3900,676,16232,115,132,-244
3390190432,4500,2164,15988,-79,73,-37
3390192146,4516,1264,15864,-113,152,32
3390193861,4092,1244,16300,-19,209,-32
3390195593,3608,328,15848,-124,95,-75
3390197304,3452,640,15916,-109,126,-86
3390199015,3628,368,16296,-109,185,147
3390200721,4016,-688,16156,17,103,33
3390202426,4532,-160,16364,-1,229,-197
3390204136,4428,108,16524,33,294,-214
3390205870,3904,1024,16584,85,249,-167
3390207578,2872,820,16552,-47,112,-158
3390209285,2908,1040,16496,-65,140,-160
3390210991,3520,1168,16264,-50,103,107
3390212697,3936,148,16364,-29,67,-64
3390214403,4176,680,16272,-113,91,-35
3390216135,3792,252,16400,-65,130,6
3390217845,3348,524,16396,24,49,-27
3390219554,3816,180,16540,-22,44,-69
3390221327,4236,-24,16212,64,164,-16
3390223153,4484,-364,15928,120,220,-67
3390224932,4320,428,16004,102,149,-219
3390226743,3428,984,16332,16,190,-140
3390228433,3212,1192,16256,82,86,-11
3390230110,3564,1200,16452,-6,17,13
3390231783,3588,592,16432,-96,11,-18
3390233453,3896,684,16616,0,79,-36
3390235137,4124,560,16304,-13,15,26
3390236883,3960,64,16044,-37,63,-71
3390238587,3552,500,16356,-30,142,-97
3390240304,3980,568,16220,59,38,-49
3390242011,4156,700,16088,19,12,-127
3390243720,4092,1040,16164,-43,133,-179
3390245434,3432,1332,16716,0,97,-108
3390247176,3252,944,16436,-20,-5,-50
3390248885,3700,464,16320,-77,-17,-5
3390250591,4152,916,16548,-139,142,31
3390252301,3992,228,16316,-78,-39,-20
3390254008,3888,456,16172,-62,-81,-94
3390255715,3968,528,16028,-135,66,-15
3390257446,3812,768,16208,-104,138,-77
3390259155,3776,800,16220,-126,23,-74
3390260864,4124,620,15944,-140,-18,-151
3390262570,4244,644,16252,-158,122,-27
3390264276,4464,-96,16356,-26,88,-170
3390265983,4004,228,16380,-45,56,-199
3390267713,3624,440,16360,-34,177,-212
3390269422,3896,1528,16344,-70,17,-18
3390271125,3856,1120,16332,-116,-47,82
3390272841,3880,200,16112,-138,80,-23
3390274552,4120,504,15948,-68,92,-79
3390276260,4500,900,15968,-107,4,-6
3390278036,4612,824,15928,-157,40,11
3390279802,4520,-104,16060,-139,256,29
3390281539,4156,-548,16224,-30,192,-161
3390283252,3872,-624,16636,5,169,-185
3390284974,3800,-60,16404,28,259,-270
3390286692,3884,1188,16240,25,122,-69
3390288402,4112,1128,15980,-1,137,-70
3390290110,4304,1204,16044,-61,198,-68
3390291817,4296,756,16156,-48,215,-60
3390293525,3768,1068,16088,-89,62,50
3390295241,3588,332,15972,-112,141,57
3390296958,3528,76,16252,-101,229,41
3390298695,3860,-156,16472,-10,146,-4
3390300413,4368,-100,16132,13,76,-99
3390302123,4424,264,16188,-17,343,-132
3390303829,3940,172,16448,19,280,-166
3390305560,3228,684,16592,2,127,-173
3390307286,2952,516,16488,-33,138,-99
3390309027,3116,820,16312,4,156,-107
3390310738,3636,768,16592,-34,18,95
3390313578,4264,564,16324,-14,166,-18
3390315329,3620,324,16492,21,94,-81
3390317068,4040,1452,16316,-90,39,88
3390318817,3916,400,16480,-101,72,69
3390320541,4296,-624,15972,89,197,-9
3390322242,3928,-1016,16484,134,82,-257
3390323933,3928,-256,16308,147,64,-279
3390325635,3472,1236,16380,113,195,-179
3390327340,3508,1644,16408,25,11,18
3390329034,4152,1724,16116,-43,35,-39
3390330820,3696,1496,16428,-160,73,104
3390332544,3720,408,16304,4,81,-67
3390334259,3544,76,16448,-89,-52,42
3390335968,3480,460,16500,-39,133,-68
3390337836,3672,192,16308,-11,93,9
3390339552,4656,344,16052,38,-13,-98
3390341288,4760,572,15872,-25,172,-190
3390343048,3304,1296,16328,54,169,-220
3390344756,2924,1276,16520,10,81,-169
3390346462,3376,1512,16476,-59,-55,-17
3390348192,4244,604,16176,-86,115,-3
3390349908,4084,804,16788,-108,97,-28
3390351642,4124,64,16064,-129,-142,-11
3390353355,3852,856,15796,-146,50,-25
3390355063,4148,424,15832,-74,151,-60
3390356773,3956,944,16308,-122,88,-121
3390358483,3864,780,16188,-157,1,-53
3390360192,4328,696,16268,-74,132,-98
3390361924,4532,560,16116,-94,121,-51
3390363655,4200,-344,15932,-63,74,-192
3390365385,3836,384,16208,-35,178,-179
3390367095,3760,752,16452,-17,57,-92
3390368812,3612,848,16552,-47,-29,-64
3390370531,3912,836,16160,-147,-26,-13
3390372314,4256,656,15688,-79,83,-30
3390374020,4688,1320,15624,-200,64,-1
3390375717,4776,924,15604,-237,88,42
3390377411,4504,4,16028,-193,268,33
3390379107,4016,-1620,16244,-15,176,-116
3390380806,3748,-1168,16536,42,171,-289
3390382559,3724,-388,16716,47,174,-199
3390384272,3736,1188,16456,143,153,-175
3390385986,4612,1608,16068,-36,96,-66
3390387697,4696,1636,15948,-79,154,-70
3390389412,3992,1360,16232,-80,233,17
3390391126,3452,516,16068,-109,80,21
3390392860,3424,484,16160,-137,79,-36
3390394611,3632,216,16396,-142,142,135
3390396326,4200,-784,16208,20,125,24
3390398037,4924,-500,16184,5,193,-137
3390399742,4700,-440,16208,41,286,-256
3390401455,3600,900,16388,105,286,-177
3390403190,2916,724,16436,51,154,-207
3390404899,2656,1560,16560,1,126,-208
3390406608,3464,1424,16300,-87,129,87
3390408316,4028,636,16416,-31,69,41
3390410021,3960,180,16376,-112,44,-73
3390411728,3648,512,16208,-95,108,-65
3390413460,3472,576,16528,-44,72,59
3390415165,4028,-324,16036,31,70,5
3390416876,3952,-788,16148,56,89,-67
3390418585,4120,-884,16236,178,188,-189
3390420292,4244,612,16292,176,95,-288
3390422001,3500,1248,16460,23,156,-141
3390423731,3328,1656,16220,13,200,-106
3390425440,3516,1884,16528,-84,61,84
3390427147,3572,264,16252,-83,-33,11
3390428853,3652,500,16540,-79,50,-40
3390430557,3740,-200,16332,16,16,-22
3390432264,3952,464,16380,-20,-25,-29
3390433994,4120,112,16108,-4,98,-105
3390435711,4180,572,16112,44,171,-117
3390437431,3980,684,15836,21,82,-126
3390439146,3724,1300,16056,4,97,-181
3390440934,3184,1328,16676,-36,117,-125
3390442739,3400,1136,16516,6,3,-7
3390444497,4372,552,16272,-73,84,-97
3390446203,3592,860,16576,-228,30,12
3390447888,3648,740,16216,-69,-23,-60
3390449568,3704,996,16272,-110,-79,31
3390451324,3936,204,16032,-144,113,-108
3390453105,3684,708,16084,-135,90,-38
3390454860,4364,740,15844,-41,-2,-116
3390456601,4260,900,16036,-116,6,-25
3390458321,4352,-344,16496,-126,207,-165
3390460068,4020,684,16404,-24,93,-160
3390461771,3880,520,16292,-45,19,-122
3390463470,3636,876,16268,-85,88,-144
3390465196,3800,980,16636,-106,56,0
3390466891,3876,304,16088,-92,-51,26
3390468587,4048,208,15956,-130,3,-59
3390470285,4364,508,15740,-122,98,11
3390471977,4488,776,15704,-103,63,-18
3390473697,4724,704,15532,-144,64,83
3390475453,4580,-460,16252,-109,342,-142
3390477159,3904,-192,16604,1,177,-93
3390478868,3616,132,16664,37,131,-242
3390480576,3644,840,16436,7,157,-211
3390482284,3764,988,16300,32,169,-57
3390483990,4480,1380,16200,-38,85,-4
3390486570,4648,628,16024,-113,169,-45
3390488291,3812,896,16132,-72,189,-53
3390489998,3540,136,16180,-73,85,8
3390491703,3540,-16,16252,-53,119,-16
3390493415,3628,88,16472,-90,243,0
3390495128,4252,-128,16332,40,151,-102
3390496869,4740,548,16172,-46,180,-67
3390498591,4420,36,16120,-39,307,-162
3390500290,3180,968,16688,22,199,-185
3390501985,2968,380,16592,20,52,-116
3390503676,3016,892,16408,2,83,-143
3390505366,3564,624,16348,-54,137,82
3390507059,4228,340,16108,38,59,-30
3390508760,4536,132,16440,-44,112,-66
3390510467,3872,320,16464,-22,175,-107
3390512174,3396,1012,16564,-1,100,-66
3390513879,3932,600,16060,-25,24,42
3390515586,4052,-104,16000,1,121,-4
3390517295,3904,-712,16436,73,197,-88
3390519001,4040,44,16392,115,96,-310
3390520706,3280,968,16208,29,78,-61
3390522413,3180,1104,16424,94,192,-115
3390524123,4176,2268,16228,-65,12,35
3390525832,3884,804,16328,-85,23,18
3390527566,3768,756,16268,-48,101,-58
3390529277,3908,316,16432,-51,46,43
3390530986,3516,652,16312,-53,23,-93
3390532691,3764,-356,16312,-42,120,-9
3390534398,3816,-168,16316,62,105,-71
3390536108,4360,-32,15844,20,2,-129
3390537840,4052,1268,16220,12,143,-307
3390539548,3856,1672,16264,-31,186,-195
3390541254,3020,1152,16540,-34,2,-40
3390542959,3588,572,16576,-107,-43,-77
3390544690,3960,532,16800,-192,3,89
3390546493,4320,-248,16144,-87,7,25
3390548261,4444,996,15784,-76,-25,-47
3390549988,4048,372,15892,-89,124,-78
3390551678,4044,1080,15852,-99,158,-38
3390553358,3968,472,16064,-111,54,-42
3390555044,3968,1376,16284,-173,40,-110
3390556732,4128,116,16476,-155,135,-1
3390558482,4080,-220,16224,-46,102,-73
3390560183,3668,-176,16452,-24,3,-191
3390561879,3832,444,16364,-41,118,-220
3390563570,3792,888,16552,-15,110,-137
3390565271,3732,904,16256,-84,-19,-1
3390566971,4324,840,15732,-140,-20,-52
3390568690,4788,1344,15672,-181,174,22
3390570410,4896,976,15708,-170,201,34
3390572120,4404,600,16108,-213,146,-3
3390573821,3892,-1068,16320,-105,212,-52
3390575522,3536,-984,16484,-12,237,-114
3390577227,3708,-892,16704,33,130,-149
3390578984,3916,652,16344,66,141,-198
3390580694,4632,1264,15976,50,173,-70
3390582410,4868,1356,15788,33,213,-79
3390584120,4076,1344,16000,-66,130,-57
3390585831,3152,784,16268,-76,173,-12
3390587540,3512,1016,16168,-130,160,-6
3390589275,3448,588,16504,-172,61,103
3390590986,3976,-424,16232,-91,103,58
3390592697,5048,-816,16044,32,232,-74
3390594407,4928,-536,15948,74,296,-223
3390596117,3680,684,16468,52,229,-156
3390597829,2944,736,16392,94,266,-221
3390599599,3112,1532,16184,-1,98,-11
3390601299,3156,1116,16384,-15,35,-8
3390602993,4236,1036,16628,-80,188,17
3390604686,4096,484,16620,-63,106,-23
3390606377,3504,724,16268,-91,32,-45
3390608073,3232,504,16452,-153,69,17
3390609820,4036,-256,16216,30,103,29
3390611524,3972,-1112,15864,77,106,-75
3390613236,4092,-1352,16176,130,103,-193
3390614941,4156,540,16528,157,193,-297
3390616648,3740,1356,15944,81,135,-75
3390618364,3284,1548,16300,49,160,-141
3390620099,3652,2088,16476,-125,129,60
3390621805,3500,384,16132,0,62,28
3390623513,3788,356,16600,-47,-49,73
3390625224,3980,-212,16692,-44,-27,-13
3390626934,3872,624,16460,-33,76,34
3390628640,4108,116,16036,50,54,-90
3390630369,4232,500,16220,21,12,-91
3390632083,4128,396,15952,9,162,-184
3390633791,3580,1164,15948,84,119,-167
3390635512,3208,1532,16616,-58,5,-158
3390637231,3484,1140,16376,-83,-8,-39
3390638939,4408,668,16572,-63,197,-111
3390640676,3752,716,16480,-169,-80,10
3390642385,3696,312,16580,-151,-69,-46
3390644098,3696,1280,16204,-92,6,44
3390645808,4004,436,16092,-92,28,-4
3390647515,3744,308,15992,-198,51,-18
3390649220,4172,216,15852,-123,102,-124
3390650951,4240,928,16012,-101,24,-1
3390652660,4320,-352,16356,-133,58,-92
3390654367,4336,-184,16136,-108,190,-201
3390656075,3624,652,16252,-25,150,-172
3390658898,3776,1016,16748,-95,5,-128
3390660644,3800,644,16140,-138,71,19
3390662447,3828,600,15996,-98,16,-66
3390664155,4096,524,15936,-128,-59,5
3390665857,4644,468,15724,-130,160,-75
3390667550,4624,572,15640,-114,151,45
3390669242,4652,180,15732,-99,153,-34
3390670932,4140,-160,16320,-71,194,-73
3390672682,3700,-300,16740,32,242,-184
3390674387,3736,620,16632,8,102,-145
3390676096,3844,924,16436,-30,86,-101
3390677802,3832,636,16084,-6,220,-63
3390679508,4532,1012,15980,-20,95,-74
3390681214,4796,884,15884,-57,93,-72
3390682944,4108,1012,15840,-116,224,-73
3390684651,3440,72,16040,-60,167,38
3390686358,3460,416,16396,-68,113,-70
3390688099,3560,284,16636,-103,103,-4
3390689808,4008,108,16480,12,272,-114
3390691514,4408,396,16468,-19,138,-58
3390693280,4364,368,15940,-9,188,-159
3390694980,3692,920,16180,-37,250,-110
3390696673,3260,392,16252,45,153,-96
3390698365,3336,984,16260,-40,58,-20
3390700075,3528,516,16416,-90,79,31
3390701766,3912,48,16408,51,143,-51
3390703562,4164,268,16528,-8,46,-13
3390705398,3696,472,16492,-41,118,-96
3390707143,3512,980,16524,-34,172,-97
3390708847,3900,680,16168,-35,86,9
3390710560,3792,-40,16156,47,57,-42
3390712260,3892,-1056,16316,118,182,-165
3390713992,3984,-256,16360,137,176,-244
3390715701,3180,732,16304,69,-19,-91
3390717406,3320,1880,16580,65,106,-96
3390719105,3856,2016,16188,2,104,48
3390720798,4152,1356,16248,-69,32,18
3390722488,3872,876,16068,-75,26,36
3390724267,3624,-92,16264,-17,100,-37
3390725981,3484,44,16252,3,107,-123
3390727697,3576,164,16552,-63,22,-64
3390729407,4172,496,16020,20,29,-38
3390731116,4760,464,15464,15,50,-20
3390732825,4180,620,16204,11,123,-317
3390734565,3088,1508,16624,-73,92,-170
3390736296,3284,796,16348,0,-7,-28
3390738007,3644,776,16532,-45,-9,-88
3390739715,4028,420,16832,-196,-22,68
3390741424,4384,348,16048,-51,34,-99
3390743131,4536,964,15788,-62,20,-72
3390744838,4320,768,15784,-114,78,1
3390746545,3924,876,15988,-162,211,-15
3390748252,3628,664,15872,-108,48,-108
3390749962,3880,1120,16152,-153,48,-105
3390751670,4212,352,16408,-176,129,-33
3390753377,3988,-344,16312,-35,94,-90
3390755110,3916,-464,16228,-39,26,-185
3390756818,3836,360,16416,-38,33,-236
3390758525,3816,1080,16408,-43,71,-33
3390760238,3892,588,15952,-69,-29,-42
3390761951,4240,1116,15916,-129,-11,-94
3390763659,4600,1048,15904,-160,147,-37
3390765389,4788,1484,15892,-177,194,24
3390767097,4816,704,15968,-238,188,90
3390768805,4064,-416,16236,-142,225,-20
3390770514,3692,-1316,16348,-11,193,-62
3390772224,3824,-560,16320,86,115,-243
3390773928,3940,100,16288,85,118,-257
3390775659,4176,1300,16152,96,189,-131
3390777369,4608,1376,16000,2,171,-122
3390779076,4320,1624,16088,-66,146,-78
3390780783,3608,1108,16320,-127,188,-33
3390782490,3292,1160,16352,-189,129,79
3390784201,3548,-116,16428,-154,64,74
3390786049,3668,-216,16412,-117,73,45
3390787821,4832,-964,15788,5,202,-33
3390789551,4764,-184,16268,66,262,-192
3390791257,3472,276,16568,73,247,-240
3390792951,2976,884,16368,84,231,-195
3390794645,3036,1236,16068,61,137,-109
3390796410,3572,1276,16236,-24,49,39
3390798115,4112,1108,16540,-74,190,37
3390799865,4136,584,16628,-63,131,64
3390801605,3776,744,16448,-84,32,-39
3390803322,3464,-160,16468,-141,47,61
3390805042,3800,-348,16064,-42,155,-38
3390806787,3952,-972,16096,60,86,-22
3390808498,3936,-924,16112,213,131,-347
3390810219,3972,736,16124,142,161,-211
3390811936,3956,1376,15720,144,140,-180
3390813647,3612,2248,16544,9,152,-93
3390815376,3556,1632,16576,-97,111,42
3390817123,3236,564,16524,-86,22,102
3390818843,3308,52,16292,-66,-16,33
3390820554,3612,260,16436,-65,-30,11
3390822260,4232,200,16228,-11,96,6
3390823965,4516,80,15964,49,90,-15
3390825704,4428,104,16128,20,50,-139
3390827437,3664,232,15896,25,144,-226
3390829146,3260,1692,16264,29,118,-249
3390831672,3580,1440,16416,-62,-46,-41
3390833388,4468,680,16508,-70,149,7
3390835104,3616,744,16812,-102,22,-119
3390836824,3564,984,16564,-161,-116,33
3390838614,3408,764,16352,-107,47,-143
3390840315,4104,1056,15904,-127,37,156
3390842010,4048,368,15952,-160,-8,23
3390843701,4144,8,15740,-126,-38,-3
3390845394,4372,400,16012,-25,154,-184
3390847089,4304,292,16168,-86,55,-86
3390848843,4328,148,16304,-72,86,-186
3390850546,3700,656,16460,-111,174,-188
3390852254,3664,700,16424,-42,46,-142
3390853963,3776,756,16524,-118,-73,-103
3390855670,3972,800,16216,-133,-27,-68
3390857375,4136,1092,16168,-117,101,-2
3390859106,4456,268,15652,-107,3,25
3390860818,4608,404,15740,-108,8,-4
3390862524,4696,312,15632,-134,207,-6
3390864237,4688,448,15948,-69,246,-32
3390865946,3896,-480,16428,-60,199,-67
3390867652,3664,-384,16492,-17,205,-118
3390869382,3456,180,16688,37,166,-179
3390871089,3576,976,16320,13,51,-102
3390872796,3744,932,16240,-29,86,-43
3390874504,4580,988,15844,-40,145,-68
3390876213,4952,904,15708,-103,135,-121
3390877921,4116,684,15924,-141,159,4
3390879649,3820,-52,15860,-86,228,-8
3390881357,3208,320,16280,-71,189,-92
3390883063,3536,48,16524,-14,121,-80
3390884790,3728,304,16568,12,155,-93
3390886521,4472,144,16408,34,233,-34
3390888239,4344,1372,16332,-14,182,-118
3390889950,3644,356,16392,-58,201,-19
3390891690,3156,188,16284,17,178,-75
3390893453,3048,396,16404,-26,55,-107
3390895242,3340,464,16144,-49,45,68
3390896995,4404,240,16184,69,164,-82
3390898706,4296,288,16432,24,91,-65
3390900425,4132,312,16484,-2,97,-188
3390902127,3420,1148,16552,-60,193,-3
3390903819,3560,764,16348,6,160,-19
3390905520,3728,596,16432,-46,62,13
3390907220,3828,-868,16268,62,179,-143
3390908913,3840,-68,16464,104,106,-155
3390910669,3416,120,16252,82,53,-197
3390912372,3488,1860,16488,26,56,-52
3390914080,4192,1464,16188,-12,117,101
3390915797,4144,1116,16252,-26,64,79
3390917514,3908,384,16468,-49,-5,-81
3390919223,4008,664,16180,-58,71,-22
3390920954,3536,512,16284,-26,112,-49
3390922664,3456,408,16372,-60,44,-13
3390924380,3824,356,16272,-44,28,-156
3390926095,4596,-44,15792,7,110,-48
3390927803,4476,-36,16048,49,168,-282
3390929509,3316,1868,16456,-17,14,-186
3390931238,3068,1000,16464,-29,29,-70
3390932951,3796,996,16528,-76,23,33
3390934666,3984,464,16684,-122,-26,8
3390936376,4228,720,16316,-151,-9,3
3390938088,4228,440,15848,-73,17,9
3390939797,3992,504,16032,-112,45,-63
3390941529,4024,476,16004,-151,69,-96
3390943236,3844,728,16036,-100,119,-122
3390944955,4108,1088,16196,-145,65,-92
3390946675,4180,688,16240,-153,32,-19
3390948391,4172,60,16520,-130,174,-150
3390950097,3756,-328,16196,-17,73,-179
3390951828,3652,1012,16456,-55,21,-216
3390953542,3696,1000,16340,-110,15,-35
3390955254,3980,772,16248,7,60,-68
3390956963,4468,844,15852,-112,-35,40
3390958669,4284,504,15876,-133,21,-64
3390960375,4868,1612,15916,-198,188,23
3390962106,4800,372,16040,-169,197,78
3390963821,3924,-980,16212,-115,168,-52
3390965535,3688,-1136,16360,-105,250,-111
3390967244,3648,-504,16524,91,223,-224
3390968951,3992,748,16300,57,79,-135
3390970657,4008,748,16200,21,95,-108
3390972387,4608,1416,15948,-14,252,-83
3390974093,4008,696,16112,-9,112,-99
3390975815,3476,1552,16444,-122,100,-87
3390977524,3472,1124,16424,-159,150,33
3390979230,3456,716,16520,-66,161,62
3390980937,3924,-508,16268,-93,5,113
3390982666,4424,-604,16024,-45,73,-48
3390984381,5152,144,16004,19,339,-70
3390986091,3760,-108,16412,78,270,-184
3390987796,2664,460,16648,36,209,-230
3390989502,2668,876,16464,44,198,-218
3390991210,3320,1372,16416,46,56,-13
3390992940,3964,968,16432,-71,77,65
3390994648,4124,416,16564,-100,153,20
3390996356,4044,1196,16288,-100,95,-72
3390998061,3552,684,16372,-116,25,62
3390999766,3668,104,16252,-83,156,0
3391001472,3764,-584,16312,-17,134,46
3391004370,4104,-748,16184,237,93,-296
3391006144,4152,680,15948,151,139,-241
3391007878,4052,2472,16440,24,257,-22
3391009600,3648,2024,16588,-27,148,27
3391011310,3436,1484,16720,-93,61,29
3391013033,2956,-36,16324,-38,39,-13
3391014752,3360,720,16964,-34,-93,21
3391016444,3812,520,16484,-89,-101,83
3391018133,4432,-16,16044,-76,89,92
3391019819,4896,0,16136,22,121,-208
3391021501,4436,24,16388,38,7,-150
3391023187,3304,56,15908,73,176,-377
3391024875,3180,2216,16316,26,102,-168
3391026575,3396,2016,16492,-19,24,-80
3391028314,4404,1616,15800,-102,-27,178
3391030041,4068,72,16976,-70,266,-297
3391031754,3448,652,16620,-218,-175,188
3391033466,3544,-196,16228,-137,-91,27
3391035184,3584,1640,15752,-96,35,80
3391036905,4148,100,16156,-126,36,29
3391038618,4656,-148,15588,-98,-53,-61
3391040328,5044,320,15472,-106,83,-179
3391042037,4340,752,15972,-102,186,-121
3391043744,3928,780,16180,-138,95,-162
3391045488,3648,428,16240,-128,125,-171
3391047201,3328,640,16728,-82,136,-118
3391048910,3552,24,16748,-74,-31,-125
3391050618,3732,1188,16220,-70,-80,-109
3391052326,4120,1200,15960,-132,-3,25
3391054032,4508,820,15620,-91,51,8
3391055778,5348,624,15468,-183,90,76
3391057497,5144,244,15300,-182,193,49
3391059204,4536,-164,15884,-58,315,-71
3391060914,3856,-408,16480,-32,172,-134
3391062622,3404,116,16752,-16,193,-184
3391064331,3172,260,17112,-41,232,-127
3391066062,3504,488,16652,44,83,-118
3391067771,4184,1512,16284,-83,-26,-15
3391069479,4668,756,15712,-108,56,14
3391071185,5060,876,15732,-29,245,-153
3391072891,3916,604,15860,-77,162,-65
3391074599,3300,472,16076,-68,254,-70
3391076307,3412,464,16208,-48,257,15
3391078014,3616,344,16496,-23,80,13
3391079720,4296,68,16392,-33,137,18
3391081428,4568,64,16364,26,276,-111
3391083152,4236,1152,16576,19,260,-155
3391084885,3272,732,16528,-67,95,-23
3391086606,3100,112,16456,-29,151,-63
3391088309,3320,328,16260,-19,139,-65
3391090001,3432,64,16128,-21,14,-56
3391091692,4388,540,16192,-23,155,-81
3391093385,4352,324,16120,-4,174,-26
3391095078,3684,836,16540,-4,113,-138
3391096835,3456,772,16720,-86,66,-21
3391098548,4276,788,16240,25,162,0
3391100264,4144,28,16028,14,139,23
3391101972,3832,-184,16172,95,88,-149
3391103682,3864,304,16192,17,165,-108
3391105390,3308,308,16344,90,135,-103
3391107121,3332,1188,16248,51,66,-73
3391108839,3948,1392,15932,-27,39,4
3391110555,3836,764,16220,7,93,11
3391112266,3904,596,16256,-23,45,-22
3391113974,3968,552,16448,-71,16,-94
3391115684,3592,324,16460,-37,171,-35
3391117418,3648,116,16512,18,113,-66
3391119128,4000,600,16312,-7,-30,-139
3391120835,4480,456,15712,-48,112,-89
3391122547,3776,1196,16268,31,183,-228
3391124259,3244,1432,16424,-22,64,-169
3391125965,3136,1000,16408,-74,-42,-34
3391127694,4004,1000,16468,-71,93,21
3391129403,4180,60,16432,-89,26,26
3391131146,3752,180,16444,-110,-72,-59
3391132936,4168,712,15896,-67,65,-52
3391134690,4184,984,15868,-84,99,2
3391136424,3796,468,16112,-183,73,-105
3391138228,3812,628,16208,-182,52,-184
3391139933,4212,1084,15996,-139,35,-10
3391141625,4220,-64,16448,-134,47,-93
3391143349,4092,-36,16520,-122,110,-117
3391145167,3892,-160,16100,-1,175,-227
3391146986,3776,1056,16280,-10,10,-142
3391148809,3968,820,16404,-93,26,-19
3391150506,3980,1048,15872,-89,101,43
3391152193,4104,632,15872,-86,52,41
3391153874,4424,932,15612,-128,54,-80
3391155562,4812,848,15924,-188,224,38
3391157251,4608,376,15888,-133,239,59
3391158986,4352,-572,16044,-82,143,-56
3391160692,3596,-1136,16416,-24,215,-163
3391162408,3828,364,16744,99,229,-241
3391164121,3928,844,16464,49,85,-89
3391165847,4296,1324,15896,-8,142,-137
3391167557,4468,996,16100,-69,261,-34
3391169288,4064,556,16204,29,213,-106
3391170996,3540,1220,16084,-71,29,-29
3391172703,3496,856,16308,-131,178,-26
3391174412,3748,692,16404,-110,129,180
3391176939,4068,-808,15916,-20,67,11
3391178660,4804,-8,16104,-22,323,-158
3391180433,4008,384,16436,74,281,-154
3391182134,3508,320,16460,73,194,-151
3391183827,2804,616,16524,-19,186,-191
3391185522,3248,916,16344,20,138,-87
3391187213,3596,1064,16476,16,59,-16
3391188904,4244,352,16320,-13,13,49
3391190655,3864,972,16248,-84,173,-85
3391192361,3540,644,16348,-46,24,13
3391194072,3716,920,16360,-26,44,-30
3391195781,3856,-184,16140,-62,130,48
3391197492,3864,-1108,16052,105,155,-72
3391199215,3844,-1240,16132,185,97,-130
3391201071,4016,84,16188,149,93,-198
3391202828,4064,2220,15976,79,262,-147
3391204549,4012,1900,16428,-17,107,-26
3391206245,3992,1840,16276,-62,51,-5
3391207938,3156,140,16256,-140,85,44
3391209629,3236,516,16360,5,29,-117
3391211388,3864,464,16224,-98,-76,112
3391213092,3816,-40,16028,-60,8,77
3391214801,4668,112,16168,13,120,-94
3391216509,4488,-28,15884,55,29,-245
3391218216,3852,460,15908,53,65,-285
3391219924,3060,1288,16164,37,181,-261
3391221655,3328,2352,16724,-85,2,-33
3391223363,4404,432,16092,-126,6,158
3391225072,4708,-336,16392,-86,214,-75
3391226777,3540,960,16824,-158,-43,-74
3391228483,3424,8,16128,-21,-49,-92
3391230188,3200,1304,16296,-46,41,-123
3391231918,4120,276,16124,-141,55,119
3391233629,4044,584,16076,-131,1,-117
3391235345,4924,332,15668,-98,68,-90
3391237064,4800,540,16032,-71,203,-192
3391238776,4168,668,16272,-175,101,-67
3391240484,3672,336,16452,-54,156,-279
3391242220,3556,360,16496,-84,94,-33
3391243928,3480,-56,16748,-65,53,-141
3391245639,3568,1152,16536,-80,-116,-71
3391247350,4184,816,16060,-104,21,49
3391249058,4264,672,15792,-59,72,65
3391250764,5048,864,15492,-157,51,3
3391252496,4988,220,15504,-141,187,28
3391254206,4356,-232,16092,-78,299,-44
3391255914,4144,-540,16092,-74,240,-83
3391257623,3368,88,16604,5,171,-237
3391259330,3448,64,16696,-24,190,-31
3391261037,3624,32,16648,55,200,-170
3391262767,3992,1520,16448,-30,18,-62
3391264477,4620,892,15936,-46,112,-89
3391266183,4600,856,15784,-79,202,-2
3391267890,4264,332,15816,-82,176,-83
3391269597,3520,780,16068,-106,136,-2
3391271304,3516,-60,16244,-32,244,44
3391273011,3536,-48,16660,16,183,12
3391274726,4152,-12,16432,4,112,-51
3391276445,4464,348,16384,17,287,-136
3391278154,4032,1072,16512,-4,216,-103
3391279865,3572,892,16456,-48,125,-47
3391281572,3364,568,16416,-75,169,-127
3391283306,3340,156,16260,-32,115,24
3391285017,3308,32,16132,23,82,-91
3391286723,3900,492,16184,-28,35,-40
3391288432,4108,484,16292,40,169,-88
3391290140,3644,572,16540,-42,72,-48
3391291847,3624,676,16444,-29,45,-81
3391293576,4088,932,16348,-32,127,26
3391295286,4048,-320,16080,68,159,10
3391296994,4044,-320,16116,76,145,-115
3391298699,3760,188,16280,35,143,-149
3391300405,3124,480,16076,151,117,-140
3391302111,3756,1384,16404,-24,22,-2
3391303840,3548,1052,16400,-48,4,-35
3391305548,3828,1140,16392,-39,117,13
3391307254,3912,276,16388,-21,-23,-32
3391308966,4016,572,16304,-21,6,-90
3391310675,3548,556,16420,-84,143,-43
3391312382,3596,424,16468,52,84,-68
3391314111,4232,704,15808,-51,-21,-73
3391315821,4540,728,15780,-59,78,-114
3391317529,4276,1000,16228,6,200,-129
3391319235,2864,944,16592,-4,-32,-131
3391320943,2896,884,16512,-49,-32,-77
3391322647,3976,1140,16072,-38,76,-17
3391324357,4156,248,16560,-97,31,47
3391326063,3908,528,15952,-134,-69,-68
3391327770,3988,484,15904,-114,16,-81
3391329475,3980,1188,16064,-75,96,-14
3391331181,3960,308,16092,-169,28,-18
3391332887,3932,460,16028,-185,66,-150
3391334616,4092,996,15912,-144,115,-28
3391336324,4364,268,16380,-58,61,-91
3391338033,4216,-328,16324,-115,116,-182
3391339740,3840,-68,16412,-61,191,-295
3391341446,3564,1280,16432,-20,23,-59
3391343152,3844,856,16236,-85,-25,25
3391344881,3984,584,16348,-125,61,12
3391346588,4160,624,15984,-92,86,-30
3391349436,4740,876,15720,-130,66,-66
3391351185,4624,524,15880,-193,222,52
3391352899,4688,-4,16064,-139,219,-8
3391354606,4028,-588,16324,-90,128,-39
3391356394,3584,-780,16648,15,295,-313
3391358095,3840,720,16444,62,130,-125
3391359786,4060,724,16068,76,115,-137
3391361477,4196,1568,16020,-49,164,-44
3391363167,4216,748,16004,-11,246,-140
3391364858,4020,1208,16228,3,143,-119
3391366605,3804,784,16268,-101,36,24
3391368308,3568,388,16260,-114,224,48
3391370018,3708,-12,16512,-64,131,24
3391371725,3868,-244,16200,-32,71,9
3391373432,4676,36,16076,-16,218,-118
3391375142,4552,56,16072,34,328,-118
3391376875,3808,260,16428,39,261,-216
3391378583,3072,436,16424,0,104,-111
3391380291,3008,1036,16520,21,208,-204
3391381996,3760,932,16464,-22,48,64
3391383701,4060,560,16276,-5,30,44
3391385408,4180,332,16136,-65,143,11
3391387137,3776,884,16272,-5,122,-106
3391388845,3800,1368,16412,-68,41,-21
3391390552,3808,368,16376,-76,71,57
3391392261,3824,-644,16116,34,190,57
3391393966,3832,-1380,16160,185,91,-245
3391395673,4120,-504,16392,212,88,-293
3391397401,3672,1256,15872,79,143,-192
3391399108,3652,1844,16364,18,180,-52
3391400826,4056,2308,16480,-14,124,-86
3391402541,3568,976,16404,-149,-33,134
3391404249,2840,72,16516,0,96,-136
3391405957,3376,300,16824,-64,-93,30
3391407691,3692,508,16240,-36,-73,-10
3391409399,4484,188,15620,-56,123,90
3391411106,5200,160,16036,70,171,-192
3391412813,4636,372,16328,38,44,-189
3391414519,3016,664,16108,34,51,-242
3391416224,2980,1776,16464,-3,174,-166
3391417953,3532,1484,16336,-70,-81,77
3391419662,4092,368,16116,-71,-73,131
3391421369,4128,684,17192,-142,206,-220
3391423074,3864,-136,16316,-166,-154,67
3391424781,3536,272,16308,-60,-45,-171
3391426487,3912,844,15788,-166,27,99
3391428218,3756,844,16300,-119,126,-106
3391429930,4468,260,15732,-98,-65,-45
3391431636,4964,640,15676,-92,48,-146
3391433342,4324,740,15924,-113,206,-50
3391435048,4032,-144,16116,-56,161,-245
3391436763,3488,608,16580,-103,77,-77
3391438510,3564,156,16548,-67,127,-24
3391440223,3320,436,16892,-33,8,-143
3391441930,3956,976,16384,-60,-131,-62
3391443638,4148,1080,15896,-88,-46,5
3391445345,4712,1020,15428,-131,88,-18
3391447052,5308,752,15384,-199,122,68
3391448760,4652,-116,15760,-189,283,-1
3391450465,4372,-788,16104,-110,290,-58
3391452234,3416,-752,16740,55,203,-284
3391454083,3292,260,16796,-11,113,-114
3391455858,3448,1008,16500,78,204,-162
3391457583,4036,1672,16264,38,120,-60
3391459308,4720,1368,15972,-49,79,-53
3391461006,4568,1208,16060,-146,178,39
3391462688,4384,540,15964,-84,202,26
3391464368,3216,568,15984,-88,114,-33
3391466044,3508,76,16092,-93,180,-27
3391467720,3544,92,16548,-60,213,13
3391469461,4132,-188,16448,4,136,-2
3391471170,4836,-116,16428,6,216,-170
3391472882,4144,1208,16636,2,338,-153
3391474594,3496,712,16476,-2,225,-97
3391476346,2664,1228,16872,-24,96,-200
3391478121,3340,756,16484,-115,73,58
3391479962,3808,460,16280,7,105,73
3391481712,4400,-124,16312,-19,66,-136
3391483409,4244,532,16312,-6,65,-178
3391485102,3476,696,16560,-24,108,22
3391486794,3552,452,16664,-7,34,-5
3391488486,4032,464,16172,4,72,3
3391490238,4180,-680,15788,94,209,-77
3391491943,4620,120,15924,159,190,-244
3391493653,4304,744,16464,61,95,-165
3391495361,3000,560,16528,47,153,-169
3391497070,3136,1548,16560,-7,76,57
3391498776,3628,1068,16412,-14,-17,-90
3391500509,3676,1488,16264,-85,-20,25
3391502220,4120,140,16296,12,101,-22
3391503927,4220,712,16284,-23,1,38
3391505633,3916,-16,16336,-41,39,-17
3391507386,3800,808,16376,14,145,-81
3391509216,4176,460,15896,-1,51,-52
3391511067,4240,908,15768,2,94,-163
3391512815,3644,1244,16324,-27,172,-169
3391514496,3320,1240,16364,-2,91,-90
3391516170,3444,484,16476,-33,-26,-92
3391517853,4036,792,16544,-170,67,16
3391519535,3952,640,16680,-160,55,-10
3391521863,4276,272,15676,-69,-101,-23
3391523575,4276,628,15912,-81,-3,-134
3391525295,3908,408,16304,-129,158,28
3391527005,4020,948,16272,-69,-5,-190
3391528713,4172,792,15916,-180,26,-19
3391530422,4120,544,16116,-148,161,-71
3391532193,4340,-40,16524,-95,137,-35
3391533893,3668,-24,16456,-45,10,-185
3391535586,3688,280,16152,-57,65,-187
3391537278,3796,1188,16356,-33,86,-113
3391538976,3996,696,16108,-79,-24,6
3391540666,3940,496,16088,-162,47,-25
3391542414,4164,272,15864,-114,114,-5
3391544126,4564,1200,15812,-113,58,-43
3391545861,4852,340,15820,-187,131,22
3391547610,4268,76,16252,-104,266,-13
3391549337,4052,-708,16216,-38,222,0
3391551046,3544,-580,16516,50,141,-295
3391552848,3920,296,16476,-8,188,-178
3391554563,4092,1568,15912,73,140,-97
3391556267,4532,1520,15852,-27,110,21
3391557964,4524,804,15972,-69,219,-102
3391559657,3636,808,16388,-50,162,-57
3391561349,3396,656,16188,-52,74,-31
3391563105,3644,640,16364,-78,84,-6
3391564811,3648,16,16668,-105,227,83
3391566521,3864,-492,16512,-12,163,7
3391568231,4672,312,16108,-26,73,-88
3391569938,4516,52,16212,7,343,-200
3391571643,3248,884,16368,42,247,-141
3391573374,2976,476,16440,22,108,-117
3391575086,2920,1064,16396,-3,59,-165
3391576807,3528,864,16472,-7,115,35
3391578531,4332,560,16564,2,65,-6
3391580247,4460,448,16360,-56,77,-14
3391581959,3720,364,16100,-23,146,-79
3391583697,3632,1620,16300,-82,101,21
3391585410,3756,724,16664,-114,36,86
3391587116,3936,-84,15980,-12,125,21
3391588824,3712,-1980,16292,151,124,-132
3391590531,4092,384,16572,151,109,-314
3391592274,3520,672,16492,71,25,-159
3391594038,3540,1948,16124,83,218,-103
3391595760,4076,2292,16600,-97,78,35
3391597476,3600,648,16560,-80,-20,37
3391599190,3384,420,16400,-62,77,-41
3391600902,3624,264,16528,-25,29,6
3391602611,3516,712,16288,-46,3,2
3391604332,3792,224,16408,-91,17,83
3391606039,4792,-104,16168,38,144,-91
3391607746,4352,128,15936,55,88,-241
3391609453,3364,1304,15780,56,76,-270
3391611160,3288,1796,16340,-2,186,-276
3391612869,3320,1560,16504,-83,2,20
3391614602,4028,692,16436,-104,-12,18
3391616313,4372,664,16648,-180,65,29
3391618020,4016,124,16532,-117,3,-65
3391619727,3716,744,15924,-45,-52,-52
3391621432,4068,868,15644,-98,152,-23
3391623140,3992,912,16044,-87,209,-17
3391624874,3952,484,16036,-109,17,-102
3391626585,4552,1160,16212,-196,50,-66
3391628294,4620,588,15956,-219,149,-39
3391630002,4196,-284,16164,-57,169,-133
3391631709,3432,-188,16392,-22,68,-253
3391633418,3620,480,16652,-61,104,-123
3391635150,3552,712,16480,-30,84,-127
3391636870,3584,940,16556,-71,-95,-44
3391638586,4328,1148,15800,-187,-14,-29
3391640296,4536,1172,15640,-182,72,3
3391642008,5440,980,15544,-183,153,-6
3391643717,4640,-44,16008,-225,216,48
3391645453,3972,-952,15980,-36,297,-102
3391647160,3636,-892,16656,37,214,-163
3391648870,3452,-144,16752,50,114,-196
3391650580,3764,760,16564,62,164,-97
3391652289,4300,1276,16132,80,148,-113
3391654002,4788,1284,16068,-43,115,-49
3391655734,4084,1292,16156,-58,195,-92
3391657443,3612,596,15972,-83,93,-2
3391659150,3452,612,16104,-107,85,-84
3391660857,3536,376,16320,-179,74,120
3391662565,4092,-424,16204,-58,162,24
3391664278,4576,-428,16076,-21,134,16
3391666060,4908,-432,16328,74,283,-287
3391667761,3800,960,16556,23,328,-188
3391669455,2952,1152,16388,61,176,-175
3391671147,2868,1500,16512,-6,81,-125
3391672838,3320,1144,16408,-89,112,-14
3391674531,4028,672,16524,-45,120,108
3391676282,4340,180,16524,-55,63,50
3391677990,4000,292,16164,-56,60,-91
3391679698,3268,624,16560,-48,116,10
3391681408,3888,-28,16396,27,11,13
3391683115,4352,68,16152,24,43,-5
3391684822,4224,-1300,15808,91,250,-144
3391686553,4332,628,16392,131,200,-288
3391688263,3924,844,16272,58,54,-149
3391689974,2844,1376,16700,47,181,-212
3391691690,3556,1660,16388,-51,88,71
3391694551,3832,792,16312,-59,-27,36
3391696323,3944,204,16616,-6,60,-37
3391698117,4188,576,16128,5,65,-41
3391699821,3852,-128,16180,-45,31,37
3391701516,3792,324,16348,46,133,-108
3391703209,3892,436,16272,46,84,-60
3391704902,4148,640,15824,40,50,-182
3391706595,4208,1568,16112,-47,136,-162
3391708346,3088,904,16544,-29,114,-151
3391710052,3184,1000,16616,-4,20,-126
3391711760,4168,684,16352,-125,-37,-3
3391713466,3664,708,16532,-161,86,-19
3391715172,3840,740,16528,-131,43,36
3391716881,4076,632,15764,-49,-59,-68
3391718607,3940,952,15988,-157,101,-1
3391720324,3928,692,15968,-89,159,-104
3391722041,3992,1100,16276,-101,35,-92
3391723761,4268,340,15808,-159,-36,-5
3391725476,4324,-108,16428,-110,203,-147
3391727186,4360,0,16268,-58,193,-164
3391728919,3820,288,16260,14,36,-191
3391730877,3644,1028,16368,-89,109,-169
3391732611,3800,916,16540,-113,30,12
3391734331,3708,684,16280,-128,-69,22
3391736071,4048,276,15732,-140,-48,15
3391737782,4404,1056,15980,-99,170,-119
3391739513,4648,664,15608,-126,50,51
3391741222,4648,312,16036,-153,173,-25
3391742942,4384,-320,15948,-138,292,-34
3391744657,3908,-612,16584,33,226,-147
3391746372,3796,256,16524,24,102,-138
3391748091,3948,396,16384,20,124,-134
3391749875,4000,1284,16348,39,195,-124
3391751573,4456,1052,15952,-37,84,-42
3391753270,4288,984,16132,-104,161,-91
3391754964,4164,1048,16096,-115,225,-33
3391756657,3716,620,15880,-76,122,-20
3391758348,3516,428,16364,-148,138,51
3391760147,3924,-392,16320,-31,228,-41
3391761938,4156,-36,16524,28,205,-110
3391763675,4556,60,16404,14,142,-96
3391765378,4076,676,16428,0,303,-192
3391767072,3652,700,16352,32,291,-116
3391768765,3124,828,16468,32,134,-108
3391770545,3228,1088,16244,-48,63,-11
3391772235,3776,220,16332,-7,129,95
3391773915,4044,-12,16516,17,92,-1
3391775596,4152,252,16512,-18,21,-14
3391777276,3652,440,16456,-10,166,-83
3391778956,3316,828,16556,-13,149,-55
3391780688,3884,596,16516,-56,63,-61
3391782388,4140,-56,16192,-38,139,25
3391784099,4036,-1136,16336,172,195,-223
3391785811,3972,-244,16400,163,149,-340
3391787519,3240,708,16356,70,40,-193
3391789225,3256,2276,16784,59,117,-50
3391790953,3944,2148,16252,-31,37,108
3391792660,4068,1716,16324,-89,10,29
3391794366,3960,356,16100,-113,94,53
3391796076,3628,12,16296,-17,32,-12
3391797786,3460,-232,16132,-19,20,-72
3391799494,3492,-16,16444,-40,39,-21
3391801225,4340,220,15932,49,104,-87
3391802933,4616,260,16036,5,57,-107
3391804641,4392,920,15904,36,125,-322
3391806350,2964,1840,16600,-71,115,-121
3391808134,3116,1192,16692,-11,25,-120
3391809844,3472,1360,16820,-87,-52,-14
3391811575,4212,328,16588,-183,77,66
3391813285,4364,348,16264,-91,-1,-7
3391814991,4380,188,15828,-72,-71,-17
3391816698,3908,996,15968,-101,45,-81
3391818404,3972,712,16172,-124,202,-1
3391820111,3676,712,16036,-122,36,-85
3391821858,3920,916,16036,-166,30,-93
3391823666,4316,596,16032,-147,99,-54
3391825428,4192,-240,16260,-51,90,-112
3391827169,3948,-300,15988,-31,70,-226
3391828894,3692,160,16552,-34,92,-268
3391830608,3608,976,16592,-41,47,-48
3391832399,3840,992,16276,-75,-80,-68
3391834201,4356,792,15960,-195,30,25
3391835935,4472,960,15516,-140,153,-60
3391837670,4928,1404,15640,-205,179,53
3391839387,4444,-56,16040,-181,182,-20
