Time_us,Accel_X,Accel_Y,Accel_Z,Gyro_X,Gyro_Y,Gyro_Z
2596855018,2680,2844,17832,-86,-53,-442
2596856931,3104,2652,16324,-315,-80,141
2596858663,1640,1664,17580,-497,-226,96
2596860438,1796,-204,16048,-94,148,-344
2596862258,3692,3236,15348,-192,-60,-182
2596864163,2452,1120,16856,-236,-16,-170
2596865946,3200,1960,16188,-244,-168,-271
2596867639,3240,1500,16456,-294,35,-171
2596869295,3972,1540,14920,-346,222,-153
2596870955,3208,1272,16504,-306,344,-136
2596872613,3432,1040,16072,-391,-178,-245
2596874351,3124,1024,16604,-301,71,-236
2596876093,3076,1440,16024,-248,71,-213
2596877816,3028,2364,16824,-223,129,-240
2596879516,3864,1388,15472,-418,-126,-59
2596881212,3824,968,15048,-298,129,-205
2596882906,3716,2104,16760,-259,-92,-134
2596884601,2572,544,16528,-232,161,-116
2596886371,3968,1860,15316,-285,192,-186
2596888086,2964,1480,16692,-218,276,-58
2596889804,3520,1560,15676,-195,1,-73
2596891515,3304,1384,17352,-274,282,-176
2596893227,4764,2296,14644,-250,143,-138
2596894936,4536,1720,15668,-162,454,-58
2596896671,4576,1216,15088,-261,94,-101
2596898383,2712,1152,16808,-289,317,-145
2596900096,2936,1620,16448,-237,178,-217
2596901813,3784,1376,14892,-130,421,-93
2596903585,3636,1840,15816,-310,18,-1
2596905350,3188,608,16924,-183,443,-147
2596907176,3744,1124,17364,-205,156,-300
2596908970,3288,1152,15788,-196,370,-41
2596910703,2560,1692,16304,-176,169,-110
2596912411,1716,416,17452,-269,129,-161
2596914094,2468,1016,16128,-224,64,-344
2596915766,4020,1612,15880,-123,520,-179
2596917472,3964,1452,16644,-172,216,-87
2596919215,1428,1416,18024,-297,318,-189
2596920975,1592,1912,16908,-360,166,-255
2596922685,2096,2012,17072,-88,464,-316
2596924362,3568,1692,15104,-214,218,74
2596926038,2280,444,16684,-172,457,-35
2596927823,3000,908,16020,-205,-99,-181
2596929513,1756,1252,16336,63,132,-359
2596931257,3268,3620,15632,-167,279,39
2596933029,2832,2416,16076,-209,437,222
2596934779,2636,2288,16876,-262,15,-10
2596936529,2104,628,17044,-141,331,62
2596938282,2616,1460,15924,-58,253,-38
2596940045,1876,956,16920,-166,242,65
2596941740,1716,1288,16740,-168,13,-251
2596943420,2512,2388,17008,-197,250,-33
2596945128,2116,2608,17040,-203,89,-60
2596946802,2524,2236,16520,-438,78,279
2596948479,1368,-188,17124,-309,-64,-104
2596950187,1660,528,17392,-195,-108,-189
2596951900,2624,720,16028,-138,-220,-247
2596953609,3172,1660,17404,-156,240,-183
2596955322,3144,1620,16196,-344,-188,12
2596957039,2956,1348,15232,-271,-50,-81
2596958821,2760,2524,15820,-158,25,-165
2596960508,2552,1280,16792,-235,291,136
2596962179,2664,84,15844,-259,-45,-169
2596963865,3540,716,15280,-121,-22,-410
2596965710,3548,2552,16676,-133,186,-128
2596967530,3032,1332,16156,-215,410,-69
2596969385,2668,1252,16472,-317,110,-381
2596971082,2560,1744,16660,-261,200,-368
2596972753,2376,2232,16592,-234,-10,-122
2596974420,1776,1228,17848,-245,-60,-173
2596976080,2548,1340,17524,-320,-168,-215
2596977772,3316,1064,16176,-228,-140,-244
2596979483,3908,2336,16556,-182,-226,-288
2596981181,4284,2552,16100,-285,36,-85
2596982934,3680,2136,17088,-311,-38,-28
2596984653,3796,320,14516,-214,-62,44
2596986369,4120,1360,13744,-151,32,-209
2596988118,4560,1512,14348,-77,481,-151
2596989912,4776,2424,15512,-183,317,101
2596991620,4428,408,15332,-173,551,79
2596993322,3956,2060,16760,-298,501,83
2596995013,4028,780,15196,-218,764,244
2596996717,2344,520,18028,-5,581,-216
2596998423,1644,920,17736,-174,273,-19
2597000157,1520,924,17604,-103,180,-76
2597001878,1420,436,17136,-45,120,-20
2597003584,1548,192,18132,-54,-214,-183
2597005322,2384,212,17068,-78,-220,-404
2597007143,3800,1624,16736,27,-180,-330
2597008958,3952,1720,15584,-13,-156,-184
2597010728,3840,768,15360,73,233,-345
2597012455,3940,3072,15944,-18,248,-254
2597014179,4012,2736,14980,-41,538,-24
2597015853,3756,1876,15604,-17,516,116
2597017523,3292,196,16108,179,801,-28
2597019188,2880,1212,15884,190,469,-134
2597020854,2080,1812,16492,217,356,-40
2597022576,1360,1968,17084,242,402,193
2597024277,768,920,18020,257,91,229
2597026004,720,1124,17816,226,-123,97
2597028693,2184,3048,17976,163,-226,175
2597030426,3416,2872,16788,-9,57,426
2597032146,2276,-676,16640,-6,-169,356
2597033937,1888,-496,16964,105,-90,9
2597035645,2080,-412,15304,98,-84,21
2597037347,2368,2008,15820,204,-2,-301
2597039042,2676,2456,15584,24,77,-3
2597040734,4004,1260,14824,149,135,-137
2597042426,4576,2624,16256,-77,144,141
2597044182,1804,-44,15376,53,268,78
2597045894,684,488,16584,194,300,-197
2597047614,1784,1272,16972,153,209,-324
2597049324,3640,2424,15960,103,-27,-76
2597051032,3584,2332,16888,181,375,-36
2597052750,1888,1728,17528,-45,-206,247
2597054475,184,548,17876,108,-51,-91
2597056205,1272,1608,16476,80,-258,-38
2597057931,1732,1256,16540,174,-59,-12
2597059648,2604,2524,16604,41,-349,37
2597061358,3568,-40,15780,87,-303,-195
2597063068,5188,1112,15732,215,-10,-354
2597064794,3496,1516,16000,-48,-258,8
2597066522,3168,2380,14936,12,53,-278
2597068217,3264,2168,15920,-31,-5,-94
2597069867,3508,1836,15232,-27,-33,-75
2597071514,3808,1820,15468,-101,-94,24
2597073160,3300,1316,15888,73,168,-338
2597074856,3852,2124,15772,-4,123,-173
2597076536,2864,196,16252,125,232,-276
2597078231,4108,3780,16904,-59,119,-189
2597079925,3096,2872,16716,-164,180,239
2597081616,3108,2244,16312,-33,197,-204
2597083307,2352,352,16948,-116,41,23
2597085066,2104,124,17208,89,83,-275
2597086773,3080,2056,16196,-11,-191,-7
2597088483,3260,1204,16264,67,-218,-145
2597090194,3816,896,16096,-27,-28,1
2597091900,4172,-148,15808,77,29,-64
2597093608,5344,1860,15636,183,0,-257
2597095342,5124,1808,14880,22,111,57
2597097052,4892,1556,14832,37,278,77
2597098758,4416,172,14848,174,460,-37
2597100468,4236,1740,15720,81,175,-72
2597102178,3176,1492,16308,147,434,-46
2597103929,3700,1864,15708,140,382,-49
2597105819,2636,528,16524,124,162,35
2597107537,2920,1668,17528,177,226,-228
2597109271,2740,1196,16260,201,165,-28
2597111011,2896,1632,16636,216,163,-139
2597112726,2592,516,16904,123,204,33
2597114408,3332,1344,16608,296,132,-220
2597116096,3308,1484,16000,223,210,70
2597117772,3000,1472,15408,277,327,-151
2597119436,2952,2580,16460,158,462,-64
2597121108,3504,1656,15672,293,416,-213
2597122776,3732,3020,16224,261,421,-179
2597124439,2636,1956,16220,133,419,250
2597126154,1940,1340,16652,315,394,91
2597127851,1556,1752,16940,247,175,107
2597129561,1372,1356,17244,187,288,242
2597131270,3272,2812,15504,205,285,231
2597132977,3072,2660,16868,166,354,338
2597134686,2920,1688,17012,142,287,467
2597136419,1636,-836,17292,147,283,482
2597138128,1132,80,16216,153,-14,-44
2597139842,1552,768,15600,163,293,-44
2597141551,1764,1452,17068,212,290,-56
2597143258,2636,780,17348,28,81,178
2597144966,2404,-184,16820,-32,-84,-29
2597146697,1052,788,16228,117,5,-370
2597148405,628,1220,17268,337,174,-509
2597150113,2796,2460,16100,56,60,-325
2597151821,2364,2092,17368,-6,-113,-275
2597153528,3048,2424,16272,194,204,-250
2597155239,3012,3344,16156,160,136,-192
2597157025,1796,3208,17300,7,42,45
2597158717,1724,1820,15872,124,167,-240
2597160405,2404,3348,16672,4,50,-11
2597162084,2312,2088,16620,186,63,-209
2597163765,3660,3248,16988,60,14,-125
2597165444,2644,520,17368,-98,96,229
2597167182,3000,2124,15796,25,69,-265
2597168940,2640,2252,17004,-11,62,-76
2597170622,2512,2140,17236,-36,-47,-57
2597172273,2672,1012,16532,-238,-200,122
2597173922,2696,512,16812,-186,-292,-111
2597175573,4016,1688,16068,-173,-119,-188
2597177279,4472,712,15248,-88,-54,-177
2597178973,4848,1156,15792,-116,-33,-317
2597180685,4992,1132,15096,-308,-18,-199
2597182394,3972,84,15332,-82,381,-267
2597184104,4064,1204,15872,-36,467,-405
2597185808,3220,620,16752,-194,264,-148
2597187541,2996,264,16560,52,425,-721
2597189253,4368,1236,15160,0,342,-199
2597190963,3144,568,16776,187,372,-447
2597192671,4276,2032,16428,9,296,-194
2597194378,2388,-1024,16916,262,126,-494
2597196088,3328,2264,16164,212,31,-334
2597197836,2992,1148,15688,256,185,-261
2597200502,4116,2212,16720,44,202,110
2597202248,4372,1968,15804,185,20,-462
2597203993,3864,1988,16048,147,427,-34
2597205777,3416,1856,15276,265,372,-190
2597207551,3256,3024,15580,-63,203,30
2597209311,3864,1872,15720,77,586,-304
2597211015,4780,2996,15376,8,628,233
2597212722,3832,1532,15444,89,736,158
2597214416,3632,1956,16668,72,895,134
2597216109,1648,1960,17028,34,508,219
2597217900,1412,1724,16604,128,421,299
2597219688,1464,2528,16888,280,429,105
2597221408,1736,2428,17720,-47,352,593
2597223087,1804,928,17076,187,90,310
2597224762,2128,1360,17512,180,32,357
2597226433,1800,380,17404,122,-16,299
2597228106,2460,-108,16372,76,272,313
2597229855,1332,-660,17512,42,163,142
2597231559,1508,80,16796,10,66,-324
2597233279,3092,1832,15260,136,295,-500
2597234989,4032,3192,15080,-196,125,-153
2597236698,2888,1728,15148,-322,403,-18
2597238407,1628,724,15328,-181,375,-479
2597240144,416,2176,17532,-63,16,-584
2597241855,1396,2340,16056,-131,-60,-445
2597243566,2280,2864,17056,-81,279,-467
2597245272,1300,3140,17884,-197,20,-20
2597246978,1416,2696,16608,27,-150,-209
2597248686,1140,3092,17920,-9,-169,-54
2597250420,1188,1496,16544,-23,-34,122
2597252131,2192,2268,15388,-79,-54,0
2597253871,2120,2376,16384,-41,50,9
2597255617,3072,4004,16764,-220,-123,197
2597257343,2368,968,15464,-329,126,398
2597259056,2548,1576,17876,-391,-12,-45
2597260855,2036,1320,17376,-556,-189,146
2597262539,2196,1032,16500,-167,-117,-325
2597264198,3360,2544,17052,-560,-382,175
2597265861,2456,520,16472,-670,-424,233
2597267525,3180,-48,16416,-463,-340,-506
2597269232,3388,1100,15948,-402,-397,-418
2597270957,3564,1384,15468,-383,-351,-419
2597272624,3596,1212,16964,-583,-196,-262
2597274281,3704,80,14708,-402,-210,-597
2597275942,4412,924,14552,-252,16,-657
2597277604,4216,2320,16236,-180,83,-556
2597279261,4108,2156,15304,-291,378,-220
2597280924,3964,1128,15748,-226,437,-224
2597282642,3796,1460,16412,-95,209,-356
2597284335,3372,2460,16584,35,192,-214
2597286082,3200,2504,17152,-62,152,87
2597287815,3416,1472,17068,-157,-29,131
2597289530,3256,1256,17012,-183,-256,-100
2597291240,4248,2916,15968,33,-213,-211
2597292981,5368,3276,15732,-381,-115,453
2597294692,4576,808,15560,-545,-135,519
2597296400,5416,76,13876,-224,236,-287
2597298112,5080,1844,15712,-214,141,-164
2597299822,5072,2292,13984,-317,322,-7
2597301528,4048,644,15412,-418,772,2
2597303306,3940,616,15568,-288,559,-205
2597305065,3328,1572,16588,-116,698,-296
2597306796,3248,2748,16584,-159,627,-205
2597308551,1380,1300,17480,-251,722,299
2597310404,396,-388,17604,-128,137,-63
2597312228,760,1040,18260,115,212,-403
2597314035,2392,3444,17720,8,149,91
2597315759,1512,2208,18472,-146,52,248
2597317423,1428,1436,17908,-209,-427,-45
2597319080,2516,1096,16048,108,86,-202
2597320734,3004,2944,17332,163,-130,-250
2597322385,2720,2116,16192,-286,75,514
2597324088,3224,-380,14852,-57,509,1
2597325791,2528,1080,16892,41,287,-141
2597327504,2944,2196,14916,-92,106,210
2597329214,3936,2756,14764,-212,613,80
2597330921,2708,1480,16696,-319,529,276
2597332640,2488,828,16268,-229,322,199
2597334384,832,1112,16880,-173,136,154
2597336097,680,1204,17788,-184,227,-50
2597337807,1464,1372,17536,-216,135,1
2597339516,1332,1300,17612,-200,-54,-13
2597341224,1388,2228,18796,-240,-53,-88
2597342930,1044,1512,16904,-356,-286,72
2597344638,596,528,17144,-325,-275,3
2597346357,1484,-396,16512,-219,-180,-334
2597348079,2860,1904,17004,-94,-54,-488
2597349787,3148,3084,15948,-222,-150,-229
2597351492,3280,2148,16024,-312,-98,-116
2597353206,3060,1172,15500,-378,130,-20
2597354954,2700,1476,15768,-193,243,-405
2597356758,3024,2632,16032,-230,150,-359
2597358525,2512,1496,16532,-372,227,52
2597360241,3284,1068,15700,-296,-73,-184
2597361935,2156,1204,17576,-286,-66,-318
2597363629,2960,1460,16172,-317,-5,-269
2597365323,2048,1812,17732,-291,68,-255
2597367009,2160,1140,16916,-445,-412,-199
2597368689,2792,1064,16648,-391,-300,-281
2597370369,3040,1232,16344,-342,-135,-256
2597372785,3336,1720,17104,-378,-86,-412
2597374481,4672,1728,15096,-461,-224,-382
2597376231,4628,2604,16416,-269,-42,-445
2597377932,4628,1808,14460,-326,275,-56
2597379642,3832,1952,15836,-295,259,-221
2597381351,4896,956,14388,-383,369,103
2597383060,4056,160,15824,5,232,-289
2597384768,4428,1944,15480,15,166,-320
2597386514,4352,3124,16324,-182,403,51
2597388237,5228,1940,14688,-321,396,295
2597389951,3612,412,17324,-135,346,-48
2597391660,4036,1188,16464,-188,202,-22
2597393369,2644,908,17036,-250,351,51
2597395077,3104,864,16080,-227,206,-119
2597396810,3048,1016,16544,-243,283,-87
2597398537,3916,748,14920,-242,276,-214
2597400261,3988,2572,17492,-275,403,-240
2597401974,3436,408,15240,-407,410,66
2597403681,3028,-72,15752,-172,731,-288
2597405430,2644,2424,15876,-348,284,11
2597407264,1728,1804,17348,1,551,-341
2597408954,3352,2492,15776,-418,368,455
2597410676,2744,-556,15716,-239,620,306
2597412416,2560,2472,17984,-40,33,-317
2597414118,1376,1480,16596,-167,295,109
2597415821,1372,2156,17824,-64,274,-128
2597417541,2524,988,16128,-238,141,481
2597419217,2508,-948,16028,101,72,-100
2597420890,2992,608,17672,134,273,-36
2597422557,2268,1468,16772,25,72,111
2597424229,2936,1876,15596,161,416,18
2597425902,2744,3320,18540,-191,70,267
2597427638,3224,1892,15040,-298,213,566
2597429337,1528,532,17164,71,484,-18
2597431050,1812,316,17248,-129,58,201
2597432761,1332,-160,16712,-55,34,6
2597434467,2440,1788,15572,22,194,-44
2597436181,2244,1508,17076,-73,156,29
2597437916,2628,1184,16088,-253,150,69
2597439625,2020,556,16020,-117,250,-108
2597441335,1788,2284,16940,-120,-28,-132
2597443044,380,112,17248,-79,103,-266
2597444750,1548,1328,16560,-17,137,-448
2597446460,2628,708,16892,2,208,-91
2597448195,1732,2284,17716,-17,-75,-313
2597449904,840,1204,17032,-74,195,-125
2597451611,404,1832,17560,56,57,-399
2597453318,1844,2372,17116,-145,-108,30
2597455029,1812,1236,16512,-134,-158,-143
2597456745,2312,1096,15856,-84,-42,-136
2597458504,2964,1072,17128,10,-289,-344
2597460243,2796,2220,16228,-163,-305,-117
2597461925,2572,1496,16220,-54,-123,-192
2597463619,2828,2316,16544,-81,-163,-217
2597465307,2472,304,15636,-281,-326,32
2597467028,3196,756,16076,-24,-210,-399
2597468875,3752,744,16344,-37,-156,-253
2597470625,4096,1480,15720,-97,-138,-304
2597472345,3412,712,15460,-222,222,-203
2597474043,3872,1980,16888,-27,252,-534
2597475798,3904,1644,15804,-179,207,-135
2597477559,2776,1280,16940,-178,233,-215
2597479310,2544,336,16652,74,222,-261
2597480995,2352,1216,16824,135,-385,-373
2597482713,2992,1772,16320,183,-184,-264
2597484485,3812,2560,16060,152,-193,-99
2597486237,4052,2092,16484,126,-297,128
2597487954,4816,2352,16500,239,-233,-8
2597489714,5568,2616,15516,132,-163,282
2597491477,3740,1424,15776,172,-86,306
2597493192,4056,1068,15084,148,149,314
2597494911,4520,1588,14968,230,175,3
2597496616,4684,2848,15588,134,99,130
2597498300,5712,792,12472,-127,316,458
2597500116,5628,940,16092,-64,609,89
2597501822,3352,-968,16052,-18,595,97
2597503522,3116,-820,16532,126,703,-254
2597505263,2728,2144,17156,-24,464,-310
2597506985,1108,1464,18200,115,572,-161
2597508684,1780,2240,18048,174,357,-265
2597510420,1868,908,19152,-103,66,124
2597512218,1396,1576,17008,-9,-123,-184
2597514013,348,1336,16760,195,-29,-106
2597515757,1240,2072,17024,286,-163,-243
2597517468,3420,1580,15688,2,-116,378
2597519149,4368,-656,15164,448,28,-56
2597520822,4676,336,15040,403,186,97
2597522497,4240,208,14308,471,327,102
2597524170,3016,3044,16572,544,494,93
2597525841,3068,2808,15328,320,484,597
2597527512,2676,2576,15476,317,497,479
2597529186,2348,2028,17416,277,564,503
2597530947,2528,-156,16236,383,416,364
2597532652,2044,84,17316,396,420,173
2597534362,184,1992,18628,2,-28,188
2597536086,-532,1892,17192,83,-86,18
2597537808,776,2776,18428,-109,-236,81
2597539520,1756,1056,17708,-253,-286,134
2597541256,1184,-140,18216,-182,-309,-366
2597542964,2004,-408,15408,183,-153,-645
2597545540,3228,3148,16684,103,-149,-507
2597547271,2640,1492,15868,-128,165,22
2597548983,3084,2504,14892,132,164,-423
2597550689,3492,2712,14876,138,206,-299
2597552411,2612,2528,16208,82,367,-94
2597554131,2196,1680,15920,45,229,4
2597555832,1776,1564,16240,95,-57,-144
2597557624,2016,1828,16196,150,68,-211
2597559402,2084,1800,17360,161,0,-6
2597561113,2436,1740,18080,39,-268,0
2597562895,2668,1348,17092,-86,-302,37
2597564588,2844,976,16496,17,-149,12
2597566281,2956,964,17232,37,-174,-51
2597567968,3188,564,16344,-146,-247,-138
2597569683,3048,704,16652,-140,-181,-290
2597571369,4192,2528,14448,-135,35,-279
2597573107,4224,1972,15584,-220,-34,-212
2597574830,3956,-256,14868,-263,-30,-144
2597576560,4196,-696,14748,-39,122,-532
2597578277,4700,1980,14968,-123,-22,-402
2597579998,3504,904,15740,76,389,-471
2597581755,4320,2256,16524,-10,272,-272
2597583499,3680,1268,16820,-98,67,-130
2597585220,4584,2380,15676,94,386,-353
2597586941,3536,1540,16588,263,438,-143
2597588670,3100,1988,17568,251,207,-120
2597590407,2380,552,16772,91,44,13
2597592132,3240,1788,15848,312,175,-323
2597593941,3464,2720,16700,285,151,55
2597595660,4308,2116,16016,144,97,206
2597597388,4744,880,15540,-24,209,99
2597599109,4396,976,15252,178,344,-141
2597600816,4068,2032,15720,182,577,39
2597602517,3712,1772,16104,36,543,156
2597604215,2644,980,15704,20,528,-42
2597605950,3456,1436,16436,82,556,38
2597607680,3512,796,16524,137,516,36
2597609388,2992,1536,17300,100,519,87
2597611095,1660,1088,17088,97,209,-32
2597612802,1136,972,17268,197,104,-49
2597614556,2052,804,16212,354,215,-161
2597616290,2216,1940,17104,377,103,16
2597618031,2256,560,17224,423,51,31
2597619809,3008,1660,16296,433,273,16
2597621567,2804,2488,16128,413,160,110
2597623331,3364,3524,16504,314,367,228
2597625113,3548,1400,15600,165,642,338
2597626844,2620,224,15792,169,544,273
2597628599,1384,-436,16580,306,472,24
2597630345,2584,2936,16744,268,222,-209
2597632204,1912,1520,16196,-22,362,320
2597633981,2452,1464,16988,50,237,156
2597635740,1916,1376,16952,56,40,-54
2597637554,2048,2516,16748,18,65,-45
2597639318,1176,1784,16492,8,163,270
2597641064,1380,492,17292,34,143,113
2597642806,1712,-172,16460,179,217,-189
2597644503,2724,884,16288,414,386,-383
2597646260,2508,3452,17612,78,84,189
2597647940,404,68,16028,55,362,34
2597649613,-120,1296,17316,208,332,-435
2597651275,1644,3092,17148,48,81,-65
2597652929,2200,1500,15648,-55,-28,-26
2597654645,1844,1016,16944,-90,71,-197
2597656480,2972,1400,17060,-52,-67,-524
2597658201,2924,2548,16056,-98,-98,-400
2597659876,2896,3396,16952,-170,-18,-284
2597661546,2524,2972,17176,-307,-57,-18
2597663245,1944,868,16056,-263,-263,-396
2597664934,2864,2336,16884,-123,-23,-436
2597666620,3160,2324,16848,-181,-150,-257
2597668320,3016,1500,16528,-317,-214,-84
2597670000,3612,1052,16120,-257,8,-303
2597671681,3784,1428,16216,-263,-10,-366
2597673400,3604,1768,16332,-254,-9,-186
2597675148,3436,516,16288,-193,85,-328
2597676986,3852,560,15528,-288,71,-290
2597678771,3532,1344,15756,-62,84,-499
2597680569,3964,2168,16204,-92,163,-449
2597682289,3556,1340,15848,-282,147,-140
2597684049,3072,1288,17552,-126,31,-342
2597685806,4064,1836,16208,-62,95,-224
2597687623,3820,1428,16552,-79,42,-90
2597689348,3420,1164,16204,-58,295,-152
2597691085,2808,732,16188,48,184,-235
2597692819,3976,2696,15880,33,129,-205
2597694545,3700,2552,16304,-21,260,43
2597696274,4064,1516,15464,20,336,23
2597698018,3412,1384,16524,-46,135,-62
2597699778,3456,1788,16768,6,240,-186
2597701509,4108,2184,16148,-10,316,-35
2597703229,3464,1172,16312,-109,214,-9
2597705009,2684,1572,16972,-140,304,-193
2597706767,3020,1740,16248,-135,246,-97
2597708479,2812,1524,16412,-77,195,-201
2597710149,2792,2124,16484,-223,26,-82
2597711804,1976,1044,16812,-188,164,-267
2597713460,2556,1692,16508,-157,107,-364
2597715156,3280,2136,16164,-166,84,-285
2597716852,3088,1756,16592,-187,185,-145
2597719207,2616,844,16196,-106,326,-24
2597720967,1964,2208,16556,-65,139,-212
2597722664,2076,2428,16444,-109,203,-100
2597724344,2140,1992,16524,12,154,95
2597726012,2252,1740,17240,26,200,127
2597727675,2084,1896,17576,-34,59,145
2597729405,2268,2308,16304,-56,132,224
2597731103,1520,1412,17016,12,113,255
2597732815,1612,1668,16752,-105,-52,220
2597734523,1920,1640,16552,-188,113,200
2597736251,2544,1784,16284,-139,83,56
2597737966,2056,2000,17684,-268,-234,236
2597739704,1604,720,16852,-325,0,63
2597741416,1704,1228,17292,-353,24,1
2597743125,1940,620,16420,-362,-208,-37
2597744835,2400,1276,16892,-321,-186,-196
2597746543,2540,1028,16056,-343,-123,-101
2597748253,2312,1080,16432,-305,-123,-308
2597749990,3048,1728,15264,-424,-216,-302
2597751699,3232,1396,16500,-286,126,-324
2597753407,3464,1704,16308,-299,73,-344
2597755141,2872,1020,15916,-470,34,-244
2597756879,2548,1684,16476,-337,159,-538
2597758676,2360,1432,17164,-335,117,-171
2597760446,2088,692,16320,-236,-8,-244
2597762141,2064,1896,18032,-338,30,-322
2597763809,2412,2068,16020,-253,-50,-326
2597765481,2868,2836,16640,-177,-38,-247
2597767151,3036,2112,16820,-289,-308,130
2597768815,2668,1496,16896,-232,-31,-78
2597770480,3008,2344,16716,-199,-273,-93
2597772177,4432,2476,15604,-219,-146,233
2597773886,4432,1368,14948,-298,106,240
2597775598,3984,1012,15688,-285,255,232
2597777308,4092,1500,16116,-209,-31,-101
2597779016,5200,1760,14864,-330,227,351
2597780752,3880,336,15664,-270,177,110
2597782463,4340,560,14972,-232,345,34
2597784173,3956,1520,16144,-255,82,-83
2597785879,4140,1496,16184,-331,260,122
2597787588,3952,516,16044,-273,279,138
2597789296,3376,860,16160,-263,43,-155
2597791029,2480,904,17032,-248,122,-193
2597792741,4164,1800,15760,-167,137,-114
2597794450,3860,1016,16424,-195,141,-43
2597796211,4584,84,14960,-219,275,-189
2597798032,4196,1596,16096,-111,447,-400
2597799815,3836,1368,15516,-246,464,-97
2597801631,3400,664,15260,-191,656,-178
2597803387,2648,1388,16024,-185,645,-225
2597805179,1696,1628,17720,-98,546,-198
2597806931,2728,2072,15812,-211,445,22
2597808636,1560,1124,17156,-167,485,20
2597810322,1528,2104,17236,-61,110,-39
2597812110,1380,1636,17152,-87,79,64
2597813795,2944,2184,16680,-69,139,205
2597815510,2524,1052,17076,-49,275,397
2597817204,2372,512,17308,181,31,-111
2597818882,2676,3468,17616,-80,-6,135
2597820578,2744,3400,15720,-110,168,332
2597822325,2420,3424,16952,-117,303,389
2597823991,1508,496,16200,-305,67,513
2597825725,2308,1148,15480,-135,179,86
2597827391,2436,1544,15796,-94,219,187
2597829055,2676,1012,15892,-167,75,225
2597830722,2620,892,15940,-264,94,85
2597832432,2872,1020,16160,-157,245,-33
2597834128,3524,2640,15880,-207,166,49
2597835838,2212,304,16900,-352,131,137
2597837549,2216,332,17276,-288,196,-106
2597839259,1904,788,16484,-245,49,-57
2597840969,2228,1500,17120,-116,99,-236
2597842705,1420,864,16892,-357,-6,117
2597844417,908,128,16464,-203,-71,-71
2597846125,1484,2612,17512,-129,-223,-286
2597847833,2632,2028,16232,-241,-48,81
2597849557,2768,1968,16408,-248,-48,22
2597851285,3492,496,15644,-302,1,84
2597853028,4236,1872,16340,-89,150,-332
2597854747,3592,1884,15188,-305,437,208
2597856463,2900,696,15676,-210,530,11
2597858234,2156,1968,16624,-255,363,-223
2597859985,1388,1640,16400,-242,160,-15
2597861743,1876,1948,17080,-295,174,174
2597863542,1884,436,17364,-416,-19,216
2597865230,2560,540,16264,-255,-30,-317
2597866904,3512,2168,16336,-216,-19,-235
2597868574,3908,2324,16416,-298,129,-121
2597870244,2744,1280,16436,-515,-207,-60
2597871913,1856,912,16968,-343,52,-383
2597873632,3588,2448,16144,-259,104,-291
2597875330,2712,2380,16732,-347,-6,-19
2597877042,3128,212,16640,-296,-16,-121
2597878753,4628,1288,15420,-158,123,-264
2597880462,4352,1748,15632,-115,40,-162
2597882169,5268,2216,15184,-56,412,27
2597883902,4040,512,15848,-118,495,162
2597885613,3656,1112,15300,-74,288,-41
2597887322,3516,1472,16128,26,457,2
2597889031,3400,1672,15856,-11,310,237
2597891595,3352,420,16792,-58,81,-79
2597893311,3020,1160,17812,-40,-30,-137
2597895029,3804,1492,16512,43,143,48
2597896729,3520,528,16792,-97,105,86
2597898422,2344,572,17432,-205,-55,-35
2597900116,3340,800,15924,20,186,-218
2597901809,4108,2168,15908,45,175,115
2597903499,3876,1216,16048,-47,190,293
2597905196,3124,72,15984,-3,251,-12
2597906933,3216,896,16068,98,372,0
2597908661,3424,2680,15524,198,329,-166
2597910374,3816,3688,16416,58,485,101
2597912092,2928,880,16512,32,278,351
2597913803,1936,196,17092,224,404,267
2597915513,1408,-152,17364,265,163,164
2597917206,1348,1756,17796,276,187,185
2597918891,160,1760,17288,324,-23,439
2597920554,1448,2176,17156,335,-182,322
2597922222,3036,2420,17476,128,21,565
2597923883,3028,1372,16456,274,66,601
2597925591,2224,1160,16756,329,-90,554
2597927251,1084,336,17304,232,-88,506
2597928914,2384,1292,15388,358,-14,240
2597930575,2684,2200,15960,272,38,387
2597932238,3884,1188,15796,194,122,464
2597933899,3768,1020,16504,33,92,430
2597935560,3100,312,15872,101,19,356
2597937253,2412,720,15824,225,11,13
2597938984,1940,1840,16360,114,168,-72
2597940701,2756,2320,16912,-33,304,312
2597942411,2004,660,16904,-11,113,269
2597944121,2920,1452,17868,29,52,-82
2597945827,1220,940,16076,-49,83,85
2597947541,940,948,16788,162,209,-173
2597949234,1676,2240,17188,120,-21,-96
2597950927,1444,1748,17440,56,-269,-126
2597952619,3224,2744,15828,73,-183,-137
2597954314,3712,2800,16296,89,-61,-86
2597956044,3084,2136,16064,-105,-32,234
2597957812,2700,388,16644,19,16,-96
2597959566,3492,1960,15272,-6,-29,-53
2597961265,2676,1460,15528,10,154,119
2597962961,2692,1332,16772,54,118,34
2597964653,2644,184,16088,-4,-56,-92
2597966376,2812,1508,16176,31,-121,-344
2597968075,4456,2272,15100,-23,258,36
2597969768,4296,2448,16792,-121,247,59
2597971459,3256,1140,16852,-253,99,285
2597973149,1508,-476,16764,21,232,-257
2597974845,2160,1648,16284,75,-71,-189
2597976606,1896,1404,17108,95,-194,25
2597978312,2924,1372,16460,59,-44,-24
2597980066,4312,1508,16448,-49,0,2
2597981777,4576,1124,15816,103,-173,-20
2597983487,4792,1136,15284,178,107,-22
2597985196,3168,-72,15640,86,114,140
2597986927,2532,908,16144,210,111,-295
2597988635,3172,2140,15732,291,295,-174
2597990343,3820,2832,15796,200,154,-8
2597992081,4556,1992,16560,42,343,163
2597993789,3748,136,15840,99,247,90
2597995501,3104,-8,15904,275,300,-47
2597997286,2132,1144,17460,293,98,11
2597998992,2476,2308,16504,242,-108,-89
2598000697,2996,1932,16448,186,89,345
2598002396,3284,772,17020,309,231,288
2598004107,4484,2204,16808,244,-170,165
2598005824,2780,2828,16052,191,-271,223
2598007545,4588,2816,13412,-31,328,779
2598009248,4068,348,14564,165,652,613
2598010940,4124,2584,16400,10,81,474
2598012628,3572,-3260,13300,452,1097,474
2598014310,3364,-1292,18280,888,1059,-218
2598016026,2572,392,16696,192,203,828
2598017785,1636,296,16792,823,717,-535
2598019483,3304,4384,18644,682,564,-271
2598021182,1276,2076,17184,299,113,567
2598022867,1508,2300,17252,329,17,171
2598024539,928,8,18100,325,-113,5
2598026202,1484,1648,17204,369,-364,-279
2598027919,2740,2652,15316,156,-13,84
2598029587,4072,3444,16928,39,254,-1
2598031261,3964,2872,17156,-135,83,297
2598032932,3684,1124,14208,-92,227,38
2598034602,3280,1532,15452,48,620,-166
2598036272,2744,1776,16808,75,712,-48
2598037993,2364,940,15628,-62,405,181
2598039690,3032,4,16036,163,469,-240
2598041400,1928,2184,17984,184,416,-262
2598043108,2148,2136,15628,100,301,316
2598044816,300,1164,18148,65,-8,179
2598046522,936,1136,17540,42,-34,11
2598048258,1496,1132,16716,127,-34,32
2598049970,2032,2296,17264,236,-14,-44
2598051676,2488,1672,17300,-98,-144,203
2598053395,2504,856,16368,-66,32,146
2598055231,2532,1440,16136,170,-14,-98
2598057109,2052,2088,17016,161,75,74
2598058971,2272,2572,16104,-98,4,234
2598060730,2400,856,15828,115,108,40
2598063274,3664,1728,15396,106,-34,74
2598064996,3256,1712,16656,40,163,60
2598066670,3748,2596,15368,-16,356,-1
2598068417,3876,2284,16224,-41,274,134
2598070110,2396,1552,17504,-100,162,165
2598071815,1844,372,16628,7,218,20
2598073511,1900,1224,16500,45,-59,-67
2598075205,1976,828,16772,48,55,22
2598076898,3056,940,17076,32,-84,-63
2598078650,3712,1480,16408,-22,-213,-177
2598080356,4144,2236,16476,9,-99,-176
2598082069,3812,1340,16120,31,111,93
2598083779,3368,476,16464,-72,-95,-41
2598085490,3436,1192,14888,-32,-92,-280
2598087198,3828,1852,14320,34,177,-246
2598088974,4800,1804,15328,34,271,48
2598090673,5012,612,15540,-89,216,-172
2598092369,4868,716,14952,-91,261,-154
2598094062,3600,972,15912,254,603,-306
2598095756,2972,1840,16252,93,309,-124
2598097450,2332,1056,16404,35,295,-62
2598099202,3016,740,16720,213,356,-344
2598100905,2792,932,17372,298,196,-235
2598102616,3268,3056,17480,216,145,-347
2598104330,2568,3012,17808,30,98,-26
2598106060,1284,1616,16964,109,41,-193
2598107824,2980,3760,16244,7,-27,-333
2598109584,3888,3640,16532,-144,140,-9
2598111278,4116,3024,16052,-174,162,247
2598112944,3128,192,16080,-91,241,16
2598114614,2988,1960,15804,-164,60,-14
2598116287,2424,2052,15316,-62,271,105
2598117948,2520,3276,15844,40,244,194
2598119690,2336,1712,16980,-169,238,382
2598121364,2248,1444,16972,-152,-8,282
2598123039,3292,1152,16324,209,245,232
2598124710,3184,1848,16596,48,153,450
2598126363,1728,980,16764,-91,242,526
2598128037,940,880,17276,43,72,127
2598129742,2200,2184,16552,85,75,178
2598131422,2484,2076,17328,-49,98,294
2598133118,1452,972,17268,-200,198,210
2598134810,1460,1612,17280,-33,-254,-94
2598136503,1128,1500,17532,-253,-309,167
2598138204,1832,884,16560,-299,-239,38
2598139959,2016,940,16668,-255,25,-26
2598141663,2868,1704,16500,-167,-246,-318
2598143372,3204,2864,15832,-246,-271,-238
2598145095,2764,2352,15752,-261,282,-12
2598146845,2392,3108,16208,-318,167,-80
2598148594,1520,1768,16372,-356,101,122
2598150401,1700,1500,16964,-326,57,77
2598152110,1528,548,17160,-161,-6,37
2598153817,1692,1572,16764,-86,-213,-42
2598155517,2004,1688,16968,-156,-94,68
2598157212,2356,1564,17124,-165,-156,39
2598158901,2308,2264,16716,-215,-315,-4
2598160657,2320,2212,16972,-395,-204,145
2598162388,2888,1480,15976,-401,7,197
2598164068,2560,336,16728,-539,-339,62
2598165734,2392,-656,16348,-387,-322,-355
2598167401,3288,652,15988,-276,-213,-547
2598169062,4908,1420,15092,-319,-83,-345
2598170782,4076,560,16340,-533,-95,-336
2598172475,3716,-40,14704,-383,51,-698
2598174188,3300,588,16400,-237,57,-818
2598175894,4416,2432,15020,-315,-6,-629
2598177604,3596,1056,15536,-394,220,-432
2598179316,3516,940,16648,-276,202,-628
2598181052,4016,1752,15836,-192,9,-523
2598182762,4308,3464,16028,-39,68,-482
2598184470,2744,2328,18076,-254,218,227
2598186178,2688,788,16668,-194,-74,54
2598187886,2944,2400,16860,4,-185,-104
2598189670,4268,2844,15816,-5,-61,240
2598191492,4716,1016,15400,-199,210,493
2598193251,4224,-228,16044,-213,64,313
2598194979,5012,1492,14836,12,168,-156
2598196688,4840,2568,14796,-209,249,446
2598198463,3480,232,16396,-348,486,324
2598200275,3156,-332,16440,-413,328,123
2598202034,3572,312,15648,-93,510,-285
2598203732,3960,3212,16964,-219,153,77
2598205417,4060,1612,15408,-372,358,353
2598207116,1708,-304,17512,-254,235,-109
2598208854,1404,116,16912,55,181,-121
2598210570,1404,2832,17584,71,-96,-225
2598212261,2320,2660,16380,-89,124,198
2598213927,1544,1856,17912,8,-82,-72
2598215584,3456,2916,16436,-14,201,121
2598217240,2684,3024,17124,-27,51,184
2598218893,2396,1352,15684,-107,309,516
2598220570,996,-148,16436,27,-1,-38
2598222270,2308,1468,15232,81,-45,-182
2598223948,3124,4084,16892,65,382,145
2598225626,4504,2844,14556,-190,396,828
2598227283,2864,1000,16248,-174,480,654
2598228939,2680,1436,16656,-158,274,276
2598230595,976,1140,16736,-66,199,304
2598232312,1516,2004,16408,-99,25,201
2598234852,964,1600,18556,-447,9,487
2598236572,1292,684,16464,-203,-13,291
2598238280,764,1512,17896,-216,-286,131
2598239987,1504,652,17248,-449,-96,466
2598241736,1932,144,16788,-269,-116,95
2598243483,3276,812,15640,-180,-110,-63
2598245234,3440,1472,17120,-196,-71,-67
2598246946,4020,456,14284,-340,138,160
2598248643,2428,876,16196,-197,134,-266
2598250350,3044,1480,15328,-221,140,-285
2598252080,2312,2304,16692,-220,148,-190
2598253780,1904,492,16160,-189,127,141
2598255514,1864,792,17748,-149,-33,-332
2598257247,2136,1204,16708,-259,-273,-175
2598258961,2612,1576,17436,40,86,-390
2598260688,3688,1976,15852,-177,75,29
2598262485,2960,3432,17316,-353,-104,-313
2598264352,3472,3576,15964,-543,-36,53
2598266033,3196,1244,16560,-279,346,-78
2598267696,2820,880,16336,-510,-92,136
2598269352,2452,-448,15588,-492,186,-51
2598271008,3048,1720,15680,-302,-50,-560
2598272663,3012,2288,17384,-430,-58,-39
2598274361,3724,932,15264,-503,-93,48
2598276096,2940,340,16608,-353,244,-443
2598277814,4104,1176,15948,-328,-54,-343
2598279523,4052,1596,16120,-173,261,-318
2598281231,3724,1660,16624,-280,221,-155
2598282941,3032,876,16928,-221,298,-290
2598284723,4100,1840,14972,-202,82,-243
2598286423,3500,2708,16592,-47,164,-215
2598288121,4332,2536,16044,-100,338,75
2598289813,3420,900,15964,-253,25,51
2598291506,3668,1096,15264,-47,226,-196
2598293197,4316,1908,15732,109,505,-186
2598294892,4952,2032,15520,-116,390,250
2598296596,3636,788,16348,-318,200,144
2598298303,3856,168,15020,-235,408,78
2598300041,3576,2488,17468,34,299,-195
2598301751,3308,-216,14792,-304,323,336
2598303457,3296,1456,17268,-221,260,-340
2598305243,3720,1824,15892,-319,163,-48
2598306958,4032,1876,16208,-96,312,-306
2598308731,4368,1320,15212,-389,579,267
2598310479,2112,368,17200,-204,144,-229
2598312177,2744,588,15256,-137,248,-211
2598313874,1876,1204,16956,122,273,-340
2598315648,1964,2748,17252,-63,454,109
2598317312,1680,1908,17536,-95,298,140
2598318959,4144,3096,15264,36,320,-52
2598320604,2980,3620,18344,-95,310,442
2598322271,3344,2332,15848,-143,347,709
2598323933,172,56,17572,-67,254,345
2598325634,1564,1596,16644,51,295,233
2598327299,1508,1908,17088,86,197,379
2598328969,3712,1508,15588,13,326,677
2598330638,1624,452,17628,-135,53,503
2598332308,1660,848,16872,-101,-156,441
2598333976,1380,108,16700,112,71,548
2598335693,2952,196,15400,-22,172,460
2598337391,1916,-296,17540,-76,0,135
2598339100,2768,460,16268,27,17,-37
2598340810,3268,1812,15832,-14,263,204
2598342516,1852,1016,17240,-144,271,33
2598344225,1752,1112,16964,-260,327,85
2598345962,436,-504,16424,-58,218,-223
2598347671,836,2212,18300,126,63,-469
2598349378,1136,1904,17172,-64,92,0
2598351086,644,1560,18244,-90,-103,-139
2598352791,1820,1224,16816,-43,-74,-270
2598354501,2544,2316,16968,63,-148,-368
2598356214,2252,2800,17452,-56,-233,-121
2598357911,2204,316,17040,-54,-129,-112
2598359601,3116,1532,15492,-30,-273,-348
2598361291,3164,1604,16148,5,-64,-249
2598363001,3596,2112,15436,55,13,-89
2598364781,3124,632,16532,-178,-157,-20
2598366614,3600,1200,15696,-118,-50,-337
2598368289,4596,1384,14812,-24,199,-187
2598369948,3872,1536,16452,-79,-2,-117
2598371603,1856,-80,17160,-249,-164,-105
2598373259,2620,108,15228,-146,-96,-339
2598374915,2440,1628,17712,55,-169,-370
2598376611,3336,1900,16960,-143,-168,-122
2598378301,3100,516,16868,-247,-251,-39
2598380038,3800,392,16496,69,-66,-530
2598381748,4260,1288,15560,84,-61,-267
2598383457,3948,984,15428,146,238,-328
2598385181,3184,920,16924,165,264,-259
2598386933,3536,1292,15340,195,46,-390
2598388646,4560,2488,15208,292,231,-323
2598390393,3964,2772,16972,183,235,84
2598392132,3920,1744,16028,68,126,248
2598393852,2700,-260,15808,243,88,-196
2598395565,3040,2644,16704,400,160,-238
2598397289,3284,3360,16216,286,80,66
2598399014,2912,1680,17076,145,-16,158
2598400742,4120,1536,16296,58,14,67
2598402457,4296,1728,15068,265,122,99
2598404201,4016,1992,16468,242,162,166
2598407170,2176,-1268,16356,153,127,17
2598409005,3084,1160,16244,355,259,-268
2598410756,3156,1904,15740,346,117,-36
2598412443,3852,2144,16268,79,227,182
2598414107,3568,1340,15472,29,255,156
2598415770,3432,1436,16472,193,386,-142
2598417435,2604,1064,16028,264,393,30
2598419156,1584,1220,16788,283,377,-44
2598420841,1076,1448,16956,171,17,-86
2598422537,1964,1656,17100,306,249,-142
2598424232,2848,2624,16820,301,169,-132
2598425923,2992,2936,18104,123,226,321
2598427615,1552,1632,16896,34,-38,339
2598429364,1552,472,16072,248,101,226
2598431068,2132,972,17016,361,199,93
2598432777,3232,1468,15304,164,200,455
2598434482,1824,736,17260,161,91,260
2598436190,2748,508,16196,170,181,236
2598437901,1892,316,16404,211,-49,146
2598439634,1956,1916,15760,130,24,53
2598441342,1568,1868,17036,49,174,105
2598443050,1716,1196,16424,38,35,120
2598444756,2224,996,17316,121,-174,-186
2598446463,2808,2196,16796,44,-13,-18
2598448174,2080,2024,17120,9,-39,65
2598449997,1144,1132,17048,2,-81,-152
2598451861,2056,1568,16808,157,-83,-378
2598453658,2912,3180,16336,103,-215,57
2598455413,2444,1864,16164,21,-103,45
2598457143,2776,1620,16416,8,-19,-45
2598458896,3300,1228,16240,152,41,-54
2598460750,4180,2484,16068,85,-79,-19
2598462447,3572,1376,15712,-116,245,161
2598464148,3156,568,15992,-78,238,19
2598465875,2472,8,16768,84,168,-178
2598467561,3572,1056,15776,77,123,-350
2598469221,3516,2028,16752,36,175,-325
2598470948,3232,860,16068,-75,77,-10
2598472625,3420,680,16540,114,187,-497
2598474308,3424,2312,16732,-74,43,-226
2598475989,3404,1648,16108,-60,126,-186
2598477707,2912,744,16576,-35,31,-163
2598479392,2616,1276,16924,57,-41,-519
2598481133,3564,2100,15988,18,110,-423
2598482837,3464,1892,16300,72,-20,-281
2598484554,3928,1868,16668,-126,52,-57
2598486268,3352,428,15596,117,178,-409
2598487977,4264,1960,16172,157,173,-371
2598489722,3396,300,15416,38,146,8
2598491458,3736,532,16116,131,241,-324
2598493169,4020,636,15876,228,321,-311
2598494879,4644,1712,15400,293,180,-183
2598496586,3616,2856,15712,187,179,-56
2598498295,2548,1372,16620,104,263,144
2598500029,3016,768,15152,299,163,-71
2598501766,3940,2444,16556,307,283,128
2598503476,2988,468,16244,409,479,83
2598505190,3312,1436,16460,417,553,85
2598506906,1792,452,17012,400,404,289
2598508649,2008,3532,17744,310,176,141
2598510409,2292,2748,16848,225,400,455
2598512158,2988,2420,16988,162,424,398
2598513856,1924,-8,16624,112,271,533
2598515522,1408,360,16664,268,22,61
2598517179,1912,480,16348,257,140,86
2598518837,1980,1160,15816,55,139,81
2598520491,1696,828,16884,84,293,-203
2598522195,3056,1100,16780,105,299,-337
2598523888,3700,2688,16324,34,194,-310
2598525600,732,2004,16664,-60,315,1
2598527310,-524,1072,17792,161,215,-402
2598529018,72,2076,17936,81,-94,-440
2598530724,2636,2120,16468,178,137,-245
2598532455,304,4128,18444,-22,-267,179
2598534234,1092,2152,17032,43,-318,33
2598536090,1020,2888,17484,53,-354,-101
2598537850,2180,3412,16416,-63,-82,304
2598539580,2540,2304,16052,-205,-317,385
2598541384,2688,600,17168,-95,-338,-136
2598543212,4552,1536,15184,-229,5,178
2598544942,2548,824,16708,-268,-32,122
2598546617,2472,436,15596,-337,22,-152
2598548291,2320,984,16724,-346,-278,-384
2598549960,2644,1596,16064,-349,-375,-330
2598551625,2924,1600,16568,-354,-162,-244
2598553299,3232,860,16372,-467,-194,-266
2598555033,3292,460,16640,-418,-111,-400
2598556769,3976,956,15884,-267,-148,-553
2598558490,3148,1424,16856,-325,-315,-385
2598560214,2272,976,16532,-333,23,-353
2598561932,2712,228,16112,-270,-1,-450
2598563650,3516,924,16760,-141,-82,-718
2598565390,3848,1236,15568,-120,143,-540
2598567143,3336,1504,16716,-77,217,-618
2598568836,3664,2004,16640,-211,55,-451
2598570512,4004,2072,15304,-87,63,-546
2598572186,3624,2920,16536,-82,134,-450
2598573934,3880,1344,15792,-212,151,-94
2598575624,3520,2072,16148,-203,-290,-375
2598577314,4040,2112,15924,-109,57,-139
2598579668,4608,3080,15780,-193,123,185
2598581359,3568,180,15764,-272,145,66
2598583037,3192,760,17044,-177,1,-261
2598584746,4432,2308,15768,-104,247,137
2598586462,4124,836,16000,-163,182,166
2598588174,3004,628,17564,-239,148,44
2598589934,3644,872,15420,-180,78,-151
2598591790,4016,2932,16872,-1,129,-59
2598593895,3364,644,16128,-297,144,348
2598595805,2860,-136,15872,-173,203,-174
2598597589,3640,1796,15416,-52,122,-159
2598599310,3236,1492,15788,-186,73,11
2598601007,4132,984,14712,-178,486,-24
2598602743,3076,404,16836,-83,105,-173
2598604473,2928,1176,16192,98,393,-99
2598606247,2412,1664,16020,96,448,10
2598608059,1472,1928,16460,126,517,108
2598609821,708,2220,17600,35,92,154
2598611554,2456,2004,15908,101,262,195
2598613265,2704,2800,17840,149,188,289
2598614968,2668,1756,16700,31,215,584
2598616670,356,1156,17960,-1,-89,171
2598618360,312,2540,17588,-13,-9,202
2598620074,1048,3260,17168,3,-149,200
2598621747,2364,2684,16436,-369,-115,704
2598623419,1444,12,17500,-372,-186,241
2598625122,2148,572,16600,-312,-416,98
2598626796,1536,288,16000,-213,-499,20
2598628468,3896,1068,15148,-251,148,-92
2598630155,3012,920,17364,-356,180,-77
2598631828,3148,60,15408,-305,-58,-263
2598633505,3832,2932,15932,-173,97,-390
2598635205,2448,1204,16212,-389,363,155
2598636882,1428,-64,16924,-382,282,-98
2598638555,1620,156,15596,-224,35,-543
2598640224,1544,2680,17736,-51,128,-554
2598641880,2072,3276,17532,-236,-46,-189
2598643537,1596,208,17524,-334,-3,-323
2598645230,2544,2204,16632,-432,-210,-497
2598646903,2312,1808,17460,-310,-104,-383
2598648570,3472,2900,16380,-379,-317,-316
2598650243,2780,-396,15740,-648,-298,-195
2598651912,3148,-864,16004,-438,-233,-629
2598653586,4140,1404,15504,-285,-103,-592
2598655291,3792,1860,14668,-310,-41,-538
2598656988,4376,2312,15244,-352,300,-525
2598658668,3920,1604,15252,-462,7,-323
2598660347,3376,2456,16736,-178,-9,-467
2598662025,5112,3124,14908,-182,142,-315
2598663691,3864,2244,16616,-371,196,38
2598665397,3016,684,16664,-279,-16,-51
2598667138,3164,1428,16484,-11,55,-258
2598668940,3336,3108,17120,-78,-31,-192
2598670691,3636,1752,16756,-334,186,424
2598672423,4140,656,15940,-218,-123,-129
2598674141,3944,1120,16816,-200,-69,-125
2598675835,4664,1712,15592,-81,156,-4
2598677533,4796,1832,15668,-406,21,270
2598679218,4220,-952,14700,-278,241,-231
2598680899,4924,1008,15568,-132,382,-464
2598682580,5104,1140,14404,-261,478,139
2598684262,4168,1224,16272,-243,587,-139
2598686026,3932,1284,15848,-359,502,0
2598687719,2800,64,16472,-18,642,-189
2598689422,3472,2296,15404,-102,430,-7
2598691157,1868,1376,17632,-136,495,49
2598692851,2304,1208,16816,-147,394,113
2598694524,1808,688,17040,21,429,-73
2598696213,2204,3000,16380,-73,188,-72
2598697895,2664,2312,16076,-60,629,197
2598699554,2208,1944,17468,16,278,95
2598701211,1180,708,17448,-2,254,236
2598702868,1008,1208,17724,89,121,30
2598704533,1344,2436,16808,51,435,436
2598706254,1900,2212,16448,-142,23,372
2598708095,2884,944,15876,-155,214,388
2598709954,2780,1144,16764,-8,219,233
2598711780,2760,1076,15740,-70,220,637
2598713591,2124,456,16456,-126,89,148
2598715353,1760,-200,16500,-143,306,171
2598717188,2260,1460,16320,-26,24,-61
2598718987,2868,1568,15992,-109,148,66
2598720755,2540,1196,17640,-312,134,-170
2598722473,2096,756,16124,-210,281,-141
2598724190,680,1772,16832,-169,-116,-269
2598725917,1048,1560,16984,-303,40,-196
2598727702,1868,1172,17152,-327,-106,-352
2598729450,2588,1456,17024,-199,172,-277
2598731182,3652,1896,14668,-283,-237,-191
2598732903,2652,1812,16636,-239,215,-212
2598734640,3340,1792,15440,-358,17,-151
2598736382,2872,884,16588,-177,225,-369
2598738181,3056,1848,15940,-326,120,-100
2598739907,3008,1292,15700,-283,180,-206
2598741597,3456,2596,16152,-385,-135,-135
2598743255,1856,136,17596,-281,220,-115
2598744913,2148,1176,16376,-262,-98,-268
2598746572,1884,1328,17344,-312,-57,-186
2598748281,3348,1744,16164,-315,-56,-192
2598749973,3308,1344,16420,-316,44,-64
2598752899,3972,1908,15380,-288,-7,-267
2598754671,2984,2024,17844,-364,-50,-240
2598756483,3924,1520,16764,-129,389,-132
2598758257,4120,1376,15676,-295,-4,4
2598760087,3180,700,16140,-279,133,-54
2598761787,4056,1096,16340,-128,166,-274
2598763471,4188,1140,15404,-81,55,-37
2598765154,4156,2004,15980,-188,44,-30
2598766835,4672,1220,15308,-307,268,118
2598768517,4128,880,15228,4,85,-256
2598770253,4452,1940,16348,-92,221,145
2598771955,4212,552,15772,-180,260,214
2598773695,3412,784,16556,-82,336,-191
2598775404,3544,652,14924,-9,293,-103
2598777112,4160,2756,17196,-6,463,-62
2598778822,3592,2344,16840,-193,443,251
2598780597,2508,340,16280,-86,316,7
2598782296,2344,936,16680,6,252,17
2598783986,2336,576,16376,93,369,34
2598785731,2300,1412,16656,118,218,93
2598787428,1892,288,17292,46,82,96
2598789124,2508,1640,17044,199,177,-106
2598790884,3088,1964,16180,254,282,112
2598792648,2168,2120,16416,248,262,101
2598794526,1544,2892,16684,-23,66,427
2598796344,2412,2116,16192,213,321,287
2598798105,2952,1316,16416,143,157,681
2598799832,2636,-452,15508,217,246,673
2598801637,1932,-904,17336,274,235,287
2598803392,1340,-396,16912,364,123,194
2598805129,900,2220,17248,461,131,115
2598806829,1916,2360,17796,306,137,272
2598808516,1916,792,17172,29,135,297
2598810267,1672,80,17224,266,-73,-89
2598812055,2204,944,17312,358,-109,-182
2598813786,1308,1672,17184,84,-110,153
2598815482,1108,220,16100,-45,-373,106
2598817160,1748,488,16700,275,-366,-468
2598818822,3856,2476,15604,309,-180,-449
2598820489,3844,2636,16084,43,2,132
2598822220,2732,752,15152,35,-91,-69
2598823909,2060,396,15992,187,-23,-231
2598825661,3044,2184,16040,332,175,-205
2598827427,3620,2260,15676,189,426,20
2598829162,1864,1496,17180,37,92,24
2598830865,2252,1168,16204,154,78,-46
2598832598,1308,3048,17852,239,-222,-116
2598834293,1268,2144,17124,-61,-156,247
2598835995,1200,936,17940,-48,-207,80
2598837731,1940,1240,17132,37,-486,-178
2598839425,2660,2548,17612,107,-701,-224
2598841118,3992,1808,16668,-169,-304,272
2598842883,2924,372,16356,-200,-457,156
2598844591,3884,608,15288,41,-217,-333
2598846309,4728,2312,14804,31,-28,-214
2598848143,4404,1728,15668,-82,155,38
2598849854,3984,1276,16128,-170,88,14
2598851567,4156,-992,14256,-47,322,-277
2598853340,3832,2504,16908,156,203,-487
2598855059,2668,848,16924,-106,38,-29
2598856775,3544,292,15560,-50,59,-336
2598858546,3500,1316,16924,-18,145,-392
2598860288,2036,1520,17640,116,-22,-356
2598861992,2744,1572,16144,52,-69,-246
2598863773,1624,664,17916,-69,-263,-313
2598865462,2576,1800,16684,157,-153,-466
2598867142,4348,2488,16108,144,-118,-294
2598868816,4504,2676,16828,32,-116,-34
2598870486,4312,244,15280,-1,8,-13
2598872157,5032,560,14416,304,100,-321
2598873878,4872,1976,15232,313,245,-317
2598875583,4576,2208,13756,35,499,121
2598877297,3208,1176,16248,118,397,-55
2598879080,3996,1288,15636,206,330,21
2598880866,4288,1336,15700,226,463,-39
2598882634,3924,2168,16620,191,620,192
2598884473,1476,116,16604,180,195,143
2598886193,1748,412,17304,360,303,-115
2598887940,2060,1048,17480,400,250,-174
2598889740,2816,1392,17156,340,341,59
2598891484,2480,1024,18464,282,225,-138
2598893187,2652,1804,17024,262,366,-171
2598894899,2192,2436,17396,266,291,-195
2598896598,2456,2920,15904,92,73,74
2598898285,1868,700,16592,-62,241,8
2598899970,2268,-360,15188,57,214,-98
2598901685,2196,296,16260,296,12,-521
2598903371,3420,1880,15164,177,97,-168
2598905127,3224,2468,16252,129,285,-156
2598906845,3396,1804,15728,34,247,-40
2598908549,2388,804,16784,281,248,-392
2598910275,2548,2424,16348,176,235,66
2598912074,1032,1044,17056,328,157,-204
2598913828,1536,2032,17088,279,149,-210
2598915661,1412,964,17064,158,223,3
2598917367,2100,3156,18008,299,165,-172
2598919030,2140,3604,17308,70,113,177
2598920696,-44,692,17100,-37,-4,133
2598922363,408,1572,17976,150,-18,-125
2598924044,1944,1724,16656,145,-100,6
2598926266,2828,1260,15892,-59,27,184
2598927974,1696,72,17088,-6,43,104
2598929714,2976,1068,16256,154,-211,-290
2598931429,2688,2108,15592,9,-193,-62
2598933179,2732,2544,16956,2,177,-214
2598934917,3000,2152,16236,-111,4,-87
2598936633,2316,764,16632,17,-248,-419
2598938412,3648,3136,16420,-38,85,-171
2598940165,2780,1120,15696,-155,158,-50
2598941870,1940,896,17056,-145,-44,-281
2598943592,2180,628,16952,-37,52,-451
2598945314,3272,3008,16208,-23,-137,-352
2598947020,2632,1884,16988,-250,-242,18
2598948714,3376,616,16076,-231,-37,-98
2598950406,3624,1096,16128,-133,-213,-449
2598952138,3860,1844,16896,-89,-187,-355
2598953834,4828,2412,15052,-139,-142,-321
2598955539,3116,1148,15952,-311,44,-52
2598957317,3120,1184,16268,-14,185,-477
2598959065,4008,1244,14812,-148,102,-92
2598960758,2924,1016,16164,-102,31,-186
2598962439,4484,1412,16068,26,336,-157
2598964121,4956,1196,14716,88,169,-175
2598965810,4420,1844,15888,103,354,-186
2598967494,4400,2112,15980,42,494,-1
2598969182,3072,1652,16148,29,249,90
2598970889,2788,1004,16348,70,356,124
2598972595,2756,1100,16440,73,165,-23
2598974305,1968,1528,17556,150,35,49
2598976082,2552,1044,17116,56,52,187
2598977807,2768,284,17288,55,-136,5
2598979524,3628,1008,16128,143,79,-195
2598981225,3332,2008,15756,119,36,-127
2598982917,3308,2384,15960,47,142,-57
2598984609,3420,1188,16044,18,437,25
2598986308,4016,2832,16140,-14,150,-159
2598988034,2432,552,16924,-73,258,160
2598989737,3076,984,15672,79,347,-179
2598991448,1648,1640,17132,-105,129,178
2598993155,1132,1052,15848,49,19,-235
2598994898,2008,1680,15760,25,81,-191
2598996635,2228,1540,17152,47,224,-196
2598998347,2568,868,17956,33,232,-207
2599000166,2472,1304,16384,20,49,-318
2599001909,1444,1472,17444,96,314,-323
2599003641,1372,2880,17220,-73,56,-160
2599005365,-180,1836,17348,-244,-303,-150
2599007089,1740,2728,17028,-207,-259,-278
2599008803,2960,2640,16104,-220,-212,-88
2599010522,2728,1548,15048,-348,-361,-103
2599012273,1948,1568,17692,-217,46,-258
2599013994,2384,1608,14756,-351,-105,39
2599015674,2012,360,15908,-247,132,-55
2599017379,2484,2320,17664,-211,179,-248
2599019071,3224,812,15388,-317,101,115
2599020768,3376,432,16412,-105,254,-218
2599022445,1756,2296,17728,-245,-307,143
2599024124,-188,-592,17208,-110,47,74
2599025790,416,336,17592,-27,-187,-305
2599027462,1844,1436,17572,-236,-414,-133
2599029134,2404,2340,17196,-126,-467,-282
2599030859,4512,2380,15836,-207,-385,-4
2599032564,3264,616,17652,-399,-366,-122
2599034283,3516,1056,14896,-357,-367,-427
2599035996,3956,3096,15740,-132,-110,-487
2599037748,4492,3092,15788,-282,-55,-129
2599039466,4008,1144,15528,-461,-218,-198
2599041243,4516,1792,15400,-263,-94,-372
2599042967,4840,3400,15524,-161,8,-40
2599044677,4716,2596,15480,-319,-35,208
2599046388,3404,476,17092,-335,50,25
2599048086,4076,136,15100,-118,1,-33
2599049780,2980,812,16688,80,-133,-271
2599051516,4592,3312,15884,-155,48,101
2599053245,3796,580,15084,-364,-163,116
2599054970,4488,1916,16080,-71,156,-377
2599056686,5060,3272,17156,-176,105,-201
2599058476,4200,1216,14604,-522,406,423
2599060269,2692,-764,17624,-358,372,-151
2599062080,2456,-440,16248,-284,366,-152
2599063747,2216,380,16620,-98,397,-403
2599065398,3984,3632,15888,-282,457,48
2599067045,1736,12,17224,-350,253,154
2599068688,1852,-160,16488,-234,130,-148
2599070336,380,424,17796,-18,-69,-347
2599072027,2088,2284,16088,-40,6,-160
2599073720,1716,1812,17708,-159,-5,-33
2599075456,3024,336,16004,-123,6,-27
2599077188,4012,1500,16688,85,-51,-273
2599078899,4688,2544,16324,46,58,-126
2599080610,2860,1696,16304,-144,304,276
2599082393,1832,508,15564,-37,286,-5
2599084098,1584,1832,17204,-18,0,-206
2599085801,2732,2248,14852,-105,4,40
2599087496,2504,2376,17336,-16,321,-189
2599089189,3452,1684,15632,-323,120,95
2599090884,2364,1380,17000,-218,84,-55
2599092641,2348,1996,16044,-270,68,59
2599094345,2492,1420,17104,-219,14,-158
2599096080,2696,12,16456,-286,60,63
2599098958,3200,1812,15640,-119,-65,-261
2599100706,2596,2000,15372,-227,76,-97
2599102420,3304,2820,15992,-287,53,-232
2599104137,2796,1272,16780,-291,384,95
2599105937,2292,388,16348,-227,190,2
2599107622,1324,308,17520,-171,333,-259
2599109303,1884,1060,16420,-155,171,-367
2599111000,2484,1796,17168,-152,176,-170
2599112754,3032,1256,16924,-146,161,-145
2599114478,2424,2168,17596,-344,-62,-213
2599116229,1668,748,15736,-210,-118,-198
2599117912,1612,1168,16660,-5,37,-381
2599119586,3008,2296,15176,-298,-341,-47
2599121242,3020,1104,16764,-193,124,-231
2599122893,4312,1584,16272,-177,51,-230
2599124546,3304,1280,17000,-175,-121,-129
2599126226,2596,1440,15664,-210,61,-119
2599127922,2180,1664,16644,-249,143,-152
2599129615,1980,1720,16152,-334,-145,-176
2599131304,3628,2292,16796,-187,142,-229
2599132995,4496,932,15068,-355,96,101
2599134749,3352,348,17024,-277,151,-143
2599136455,3640,1364,15348,-368,-135,-308
2599138160,2756,2616,16952,-226,79,-498
2599139978,2504,1692,16564,-420,-19,152
2599141865,2064,-16,16968,-405,-132,-50
2599143628,3164,740,15452,-224,-157,-513
2599145363,3572,2980,17372,-20,22,-244
2599147077,4008,2416,15504,-229,164,251
2599148760,3124,1672,16856,-300,174,189
2599150465,3484,724,15064,-315,134,132
2599152169,2720,748,16408,82,240,-20
2599153855,3308,1260,15868,8,175,19
2599155557,1732,-168,17184,-234,143,198
2599157346,2948,468,14972,164,245,-320
2599159099,3336,2184,17220,-58,-127,55
2599160811,3712,1528,15008,-128,133,187
2599162520,3332,436,17304,-184,396,-23
2599164222,2852,140,17540,-89,56,-255
2599165929,2036,1244,17312,-109,69,-304
2599167635,2464,1332,15748,-98,226,-282
2599169334,1172,1348,18684,-203,-65,-259
2599171050,2112,492,15820,-103,-41,-449
2599172761,1816,1960,16960,-43,-65,-572
2599174454,3156,2508,15700,-73,42,-96
2599176165,3076,1512,16672,-126,-237,-26
2599177876,3196,580,15488,-135,-192,54
2599179576,4336,4,14340,166,291,-252
2599181272,4888,1584,15756,299,336,-103
2599182967,3724,2052,16712,171,324,-27
2599184659,4184,1668,15852,82,562,37
2599186490,2404,2024,16252,209,588,-184
2599188220,1756,3456,16940,-25,358,338
2599189939,1472,1404,17300,-104,152,199
2599191656,1548,936,17136,-114,14,212
2599193370,1404,-608,17196,70,-271,-27
2599195122,1836,724,17140,51,-323,-235
2599196870,2288,1064,16796,49,-191,-104
2599198646,2552,1952,17628,10,-324,-97
2599200332,3336,668,16072,-93,-315,83
2599202023,3752,1284,16008,92,25,-206
2599203718,3988,1140,16488,142,185,-68
2599205411,3484,628,15944,180,-123,-54
2599207209,2344,660,15732,162,-25,-89
2599208948,1736,1840,15384,264,22,-183
2599210669,2528,1796,14632,219,32,-82
2599212390,3312,1260,16692,278,154,-158
2599214141,3428,2060,17368,60,26,-147
2599215855,2904,2104,16088,22,-40,-41
2599217590,988,2092,17512,245,301,-227
2599219285,1200,1844,18516,-153,-44,111
2599220962,2924,-504,16296,97,-108,-395
2599222614,2476,1384,17912,92,27,-484
2599224267,1952,1332,15940,-118,-426,15
2599225959,288,1292,17848,28,-566,-371
2599227737,1788,1652,16136,-75,-635,-256
2599229465,2224,1404,16548,49,-488,-397
2599231187,3572,2396,15532,36,-311,-88
2599232933,4100,2276,16192,-47,-634,-193
2599234694,5524,2228,13180,-193,-548,29
2599236460,4660,1352,16584,144,340,-366
2599238273,3932,3432,14160,-260,161,438
2599239968,2008,-1012,16268,278,724,-389
2599241681,2740,2368,18656,261,425,-515
2599243364,748,264,16928,-116,-99,501
2599245043,1944,2460,16240,280,-3,-327
2599246723,2924,2124,17268,63,62,208
2599248461,2780,484,18048,51,-206,-100
2599250166,3008,960,16460,-39,-194,-48
2599251877,3636,3000,16524,-79,-515,-192
2599253586,2748,2000,16524,-173,-141,243
2599255302,3704,-748,15164,43,-284,-249
2599257022,3592,112,16396,-100,-118,-189
2599258922,4124,1788,15848,174,-63,-579
2599260655,4740,3192,15160,160,12,-301
2599262334,3904,704,15400,34,251,14
2599264046,4688,1736,15168,-19,81,-133
2599265722,4892,812,14372,75,385,51
2599267394,4492,1672,14420,372,464,-358
2599269122,2148,1380,17432,73,3,130
2599271669,1936,2484,17064,307,94,-230
2599273390,2708,1608,15980,161,211,166
2599275101,3364,2052,16896,55,199,-25
2599276820,2668,940,17856,61,172,45
2599278550,3992,2284,17592,320,-119,-500
2599280356,3092,2188,17088,-172,7,355
2599282067,3140,1672,15100,132,367,-223
2599283767,2504,2252,17268,70,227,-44
2599285461,3036,244,15596,114,-61,-58
2599287153,4292,2684,15568,19,84,42
2599288845,3740,1936,15344,-26,62,326
2599290593,3360,784,15452,146,167,123
2599292301,4200,-144,14656,202,61,70
2599294017,4628,1948,16112,370,260,-81
2599295727,4640,2472,15808,298,189,193
2599297435,3140,596,16896,326,600,324
2599299142,2788,184,16824,346,403,147
2599300876,2916,560,15652,416,258,5
2599302584,2852,1828,16988,473,348,-128
2599304298,3256,2900,16460,78,646,369
2599306008,992,-316,17304,225,114,25
2599307711,1536,600,16964,285,94,-213
2599309473,428,772,17404,75,-240,-117
2599311290,1692,1912,16584,119,252,-318
2599313018,2428,620,17620,34,64,-197
2599314692,2496,1036,17724,28,-218,-472
2599316409,2352,2588,17164,-66,-112,-207
2599318117,2836,1720,14444,94,264,-261
2599319801,1472,2080,17704,54,199,-200
2599321513,2320,-276,15860,19,191,-72
2599323181,2768,1204,16296,301,-35,-532
2599324862,2824,2984,15252,178,105,-91
2599326531,2300,2508,15992,128,336,-13
2599328193,1072,1576,17204,75,-29,9
2599329849,1660,2180,17208,195,2,-279
2599331569,2452,3580,16728,74,-155,-128
2599333263,1832,1672,17812,2,145,254
2599334974,2952,844,17428,105,-34,-184
2599336683,2896,1416,17212,12,-193,-116
2599338391,2092,2088,16892,38,-73,-60
2599340101,2532,1564,15908,-65,217,186
2599341838,1968,228,16548,-68,-339,-244
2599343548,2976,1248,16032,-76,-157,-233
2599345311,3024,1468,16192,-11,-295,-83
2599347061,3652,2036,16496,-110,-117,-36
2599348779,4412,1012,16048,-201,-151,15
2599350506,4956,-20,15424,-50,26,-362
2599352273,4532,528,15240,39,196,-324
2599354005,3704,1852,15120,-79,308,-318
2599355702,2824,1068,15720,-177,476,-201
2599357465,2624,208,16296,144,522,-538
2599359202,3084,2468,16720,-17,-34,-264
2599360885,3320,2048,17296,-2,249,-417
2599362570,4592,2336,16880,-18,297,-258
2599364251,3272,16,16428,166,260,-317
2599365936,2316,2572,17160,13,-208,-214
2599367619,3080,1444,14600,60,93,-61
2599369304,3024,2408,17320,145,74,-141
2599370986,3092,-352,16004,160,129,-102
2599372747,3908,948,15984,330,206,-597
2599374451,5776,4204,15832,157,273,109
2599376169,3780,2460,16300,35,147,200
2599377881,2720,-124,15168,-76,348,220
2599379590,2576,-24,15824,226,378,-234
2599381302,4596,3388,14560,38,204,222
2599383050,3184,-496,17168,61,156,159
2599384778,4644,-176,14724,26,184,53
2599386530,4108,-1084,14232,211,336,-195
2599388265,4576,4320,17140,292,346,-418
2599389979,1788,1688,16668,-271,533,227
2599391694,2480,176,15092,-122,469,-162
2599393495,2248,760,19160,244,703,-432
2599395199,3496,448,14888,141,585,-146
2599396896,1464,2124,19116,57,367,-375
2599398589,2168,1668,16552,-70,294,-82
2599400281,504,1776,17704,229,153,-522
2599401983,2180,3496,15972,154,251,-106
2599403768,1860,2788,17240,46,384,79
2599405503,1400,260,16336,-132,-345,82
2599407233,1600,444,17548,395,95,-644
2599408945,3716,2856,15204,42,154,90
2599410652,2712,1504,16704,-30,198,63
2599412382,3716,1708,16108,-157,361,-162
2599414230,2276,780,15100,49,377,-341
2599415955,2032,3576,16956,-22,240,-151
2599417625,1228,2008,17008,-237,328,237
2599419334,1408,-144,15564,-18,193,-353
2599421026,908,2296,18268,162,-137,-415
2599422702,2044,3328,16248,131,-214,-191
2599424434,1132,2680,18404,-164,-98,146
2599426099,1052,1320,17268,-120,-268,-3
2599427774,2664,3216,17212,70,-7,-174
2599429437,2364,3956,17820,-52,-162,85
2599431103,2820,1732,16976,-233,35,423
2599432767,2352,536,17492,-300,-236,212
2599434476,2516,572,15972,-113,-44,-176
2599436174,3124,2000,15064,-100,163,-132
2599437889,2632,920,16140,-302,-54,-72
2599439598,2944,568,16120,-309,-67,-261
2599441305,3448,972,15496,-351,10,-192
2599444232,4032,1560,15816,-307,30,-296
2599445991,3064,132,16844,-392,-61,-430
2599447696,3488,900,16740,-326,-58,-662
2599449390,3984,2656,16148,-283,7,-412
2599451082,3700,1732,16068,-326,124,-219
2599452775,2140,-16,17064,-434,-146,-166
2599454492,2580,-536,15500,-197,-62,-495
2599456226,2992,2512,16508,-97,-221,-486
2599458134,3016,2460,16696,-15,9,-156
2599459922,4820,2976,16232,-261,-106,114
2599461642,4528,1056,15712,-331,-221,284
2599463357,4404,1656,15996,91,25,-330
2599465182,4076,1644,15932,-115,217,386
2599466895,4136,756,15020,-30,102,-178
2599469507,4036,1116,15268,-96,276,-88
2599471205,4932,2988,15184,-100,207,1
2599472891,3608,932,16584,-315,373,70
2599474580,3992,896,16528,-273,321,-148
2599476346,3124,1216,16800,-303,230,2
2599478046,2184,40,16476,-120,140,-221
2599479753,1664,1576,17720,-226,102,-262
2599481456,2624,1068,16088,-170,231,-153
2599483153,3224,1920,16704,3,122,-304
2599484939,2712,2212,17308,-284,-89,111
2599486839,1492,1972,17300,-74,332,-317
2599488570,2544,3264,17300,-95,94,-172
2599490258,2828,760,16000,-132,126,191
2599491942,2516,732,16264,-34,319,-6
2599493622,2232,8,16872,-16,292,100
2599495324,2108,1040,16472,18,-46,-233
2599497085,1968,1520,16032,-39,36,-12
2599498792,3048,3100,16480,-67,-61,-104
2599500509,3832,2740,15404,-251,129,184
2599502221,2876,496,15924,-162,20,-112
2599503934,2392,2016,17612,-68,191,-73
2599505728,1952,576,16056,-188,145,-27
2599507597,1424,1184,17064,-197,242,-208
2599509306,1812,1744,16860,-274,223,-98
2599510997,2956,2836,17232,-151,359,-110
2599512704,1080,1556,16064,-367,-214,274
2599514412,224,584,16092,-228,134,65
2599516105,988,2156,17120,-116,-228,-211
2599517804,2032,2012,17336,-124,-150,0
2599519487,2572,2272,16628,-212,-74,54
2599521168,2192,1192,17452,-246,-299,72
2599522837,2652,2548,17560,-375,-503,-30
2599524495,3276,2272,14764,-438,-413,103
2599526148,2896,1108,16448,-332,-3,-67
2599527856,2728,332,16072,-432,-8,87
2599529531,2300,4,16596,-428,-331,-163
2599531213,4300,1236,14680,-262,85,-321
2599532894,3824,988,15696,-371,141,-33
2599534575,3428,80,15224,-337,185,-158
2599536259,3004,1408,17248,-337,232,-436
2599537938,3208,1604,15820,-306,4,-151
2599539670,2660,1624,16560,-212,188,-144
2599541372,2696,796,16336,-334,-17,-33
2599543085,1964,1068,17712,-215,-101,-469
2599544796,3480,2532,16096,-293,-190,-172
2599546504,3880,2388,15968,-253,-159,-178
2599548214,4256,1808,15820,-418,72,170
2599549945,2520,-1340,16568,-247,23,-257
2599551655,2660,208,16176,-166,-200,-640
2599553375,3584,2284,16172,-165,-44,-326
2599555106,4780,2752,15080,-134,196,-64
2599556831,4616,1084,15592,-390,217,-25
2599558542,4544,1188,15924,-387,108,-278
2599560332,4780,2028,15208,-185,656,-114
2599562066,4428,1616,15304,-155,451,56
2599563731,2180,708,17112,-439,223,-9
2599565401,2728,184,15532,-360,344,-162
2599567069,2960,2452,17336,2,324,-269
2599568732,3516,1940,16004,-261,219,225
2599570463,3048,1040,17456,-305,275,104
2599572262,2392,1100,17784,-231,-12,-34
2599574024,2576,1316,16584,-67,109,47
2599575763,4288,1720,15024,-190,124,166
2599577499,3044,608,16876,-284,287,285
2599579688,4288,392,15452,-31,188,-290
2599581594,4088,1580,16856,-44,188,-242
2599583534,4168,2420,14424,-107,359,19
2599585381,3440,1948,16608,-324,393,240
2599587149,3640,-36,13980,-12,291,-216
2599588860,3244,1704,16816,-26,237,90
2599590624,3828,320,14520,62,436,211
2599592289,2420,1344,18148,-33,208,-12
2599593947,484,448,16968,-70,210,-23
2599595605,2160,2488,16368,102,236,-350
2599597260,3428,3844,15556,-205,410,318
2599598916,2016,2052,19196,-334,338,327
2599600609,1436,964,17024,-456,94,432
2599602314,128,-740,17728,-13,417,-195
2599604147,2528,3060,16460,-207,349,174
2599605905,1408,-312,16728,-423,169,397
2599607740,2756,420,17088,-152,156,-266
2599609518,2452,1392,17196,-146,165,-106
2599611240,1016,2272,15372,-105,32,98
2599612948,824,488,17432,-212,-27,145
2599614629,1276,-88,16632,-181,-82,-27
2599616296,2112,856,16600,-36,-226,-201
2599618512,2160,2140,18536,93,113,-80
2599620211,3680,1468,15740,-327,-217,208
2599621899,1332,608,15552,-119,-96,-286
2599623603,2200,1572,15716,-5,58,-345
2599625305,3016,2424,16144,-172,109,-80
2599626985,3008,1096,16576,-304,-34,-236
2599628662,4336,1952,16000,-230,166,-319
2599630337,3516,1596,16468,-270,164,-128
2599632121,2952,1740,15924,-289,169,-324
2599633832,1992,1008,17140,-417,24,-197
2599635544,2268,620,15844,-302,-97,-317
2599637258,2420,1932,16788,-296,-217,-308
2599638976,2952,1168,16328,-235,-50,-194
2599640687,4180,1524,16408,-363,-166,-81
2599642426,4240,348,15200,-366,-171,-83
2599644137,4744,2236,17040,-161,49,-459
2599645847,4196,708,15592,-284,345,170
2599647556,2540,-264,16884,-176,175,-95
2599649265,3392,544,15976,-76,237,-305
2599650968,2808,856,16536,-13,42,-239
2599652678,3224,1940,17144,12,-15,-116
2599654394,3484,1992,16388,-65,-44,1
2599656110,4392,1448,16200,-109,-171,13
2599657821,3252,216,17132,122,-101,-21
2599659529,4188,788,15176,102,-196,-89
2599661330,3044,464,16268,147,35,-46
2599663103,4216,1992,15308,195,186,9
2599664821,4088,1184,15000,149,326,114
2599666503,3876,2252,16132,177,435,-18
2599668166,4800,2156,15772,13,470,382
2599669819,3740,280,16616,77,370,241
2599671474,3352,-104,16264,90,483,124
2599673129,1744,1292,16216,109,341,-207
2599674843,1144,1552,17756,113,171,-9
2599676531,2536,1600,16260,83,140,-7
2599678225,2304,720,17192,-128,-13,168
2599679918,1760,608,17360,182,59,-201
2599681612,1788,984,16308,102,13,107
2599683303,1108,664,17192,138,-81,-13
2599685055,2696,1944,17392,79,130,-19
2599686759,3848,1352,15416,189,456,-59
2599688473,2664,1820,17236,273,330,-77
2599690180,2984,1080,16252,236,468,136
2599691886,660,-56,16656,135,16,-32
2599693595,1024,876,15032,211,161,-170
2599695328,-208,2216,17496,292,143,14
2599697039,1692,2652,16668,120,-176,284
2599698748,2856,592,17448,71,-171,0
2599700456,3648,1148,16488,143,-41,-136
2599702162,1596,1808,17064,211,-61,173
2599703874,216,1488,18396,71,-320,-12
2599705623,1308,652,17868,-121,-343,163
2599707356,1824,204,15424,33,-290,3
2599709099,3072,2592,17844,415,96,-256
2599710823,3156,3084,17288,-99,-394,431
2599712517,1712,1028,16472,-184,-534,533
2599714242,1152,-716,15972,253,-225,-69
2599716083,3480,1152,15088,219,-70,-289
2599717766,2856,1260,17000,25,-268,-76
2599719432,4192,680,15148,135,-126,-111
2599721100,4724,2560,15740,45,-292,-345
2599722767,2892,1696,15896,5,126,-159
2599724428,2568,2136,16040,21,247,-349
2599726142,2204,1152,16544,-145,-11,-120
2599727816,2384,2100,17060,-41,-327,-578
2599729505,3444,3020,15264,-108,-231,-302
2599731192,2492,1408,17464,83,127,-208
2599732873,4060,1384,15808,-107,29,19
2599734552,2348,236,17848,-69,-53,-102
2599736287,4000,2588,14952,179,130,-328
2599737986,3108,2924,16764,105,-115,63
2599739696,2824,2084,16796,-122,-229,267
2599741401,3636,880,15888,-95,2,209
2599743105,3916,1432,15068,79,-249,-5
2599744819,3876,1360,16632,147,-84,141
2599746550,5036,1016,15244,71,-57,180
2599748264,3468,-272,16280,149,111,110
2599749983,4368,1804,15068,215,254,-71
2599751692,4032,1148,15024,211,346,54
2599753400,3576,2088,16460,178,404,48
2599755112,3544,324,15316,45,294,324
2599756886,3404,1428,16380,132,116,-109
2599758586,2288,432,17192,287,420,4
2599760279,2916,1236,16872,333,261,-199
2599762053,2176,932,17972,-15,-120,188
2599763812,2652,1244,17092,249,257,-430
2599765514,3468,2776,16848,231,128,-160
2599767291,2656,1500,17900,162,17,132
2599768967,3124,420,16496,-29,40,79
2599770628,3704,-196,15284,244,262,-222
2599772293,3388,812,16208,301,112,-293
2599773954,3616,1320,15428,175,230,-84
2599775616,3300,1444,16056,66,213,-125
2599777326,3684,1304,15408,73,232,-92
2599779022,3316,1228,15288,159,143,-294
2599780731,3636,2292,16316,-7,485,-177
2599782439,3544,1448,16912,-31,396,-86
2599784149,3344,832,15292,54,343,-251
2599785860,1912,-60,16964,304,427,-473
2599787589,1476,2944,18424,320,414,-188
2599790455,368,2700,16948,191,129,154
2599792209,2248,3160,16516,349,304,140
2599793927,2320,2948,17380,313,37,449
2599795638,836,2680,16460,245,-177,568
2599797389,944,1968,15144,174,-67,680
2599799161,1500,-1368,18092,341,38,424
2599800888,2356,644,17304,225,-199,260
2599802585,2716,1408,15056,304,263,-151
2599804296,3984,2972,16652,198,467,-99
2599806042,2308,-192,15996,-143,-33,304
2599807827,1020,0,16956,191,135,-601
2599809573,172,1132,16740,-85,134,-433
2599811297,416,1624,16192,31,23,-585
2599812996,1796,2464,17036,33,104,-304
2599814688,1680,2212,18268,-17,-359,-416
2599816380,2108,3036,17228,-43,-389,-401
2599818126,2120,2716,16228,129,-5,-125
2599819807,2972,2972,17108,117,-191,-40
2599821491,2916,2420,17384,-47,-153,169
2599823177,3520,1576,15404,109,-132,-109
2599824863,4600,3432,15544,121,-18,49
2599826541,3388,788,15988,-30,158,285
2599828227,3800,492,15104,-32,142,153
2599829995,3008,244,16048,-25,-21,-160
2599831829,3536,2256,16020,96,191,-153
2599833573,3716,1164,15644,-41,320,190
2599835264,3132,880,17308,-80,38,34
2599836948,3924,1264,16132,-55,25,57
2599838658,4196,1224,15420,141,153,64
2599840339,4508,1168,16052,199,294,99
2599842031,4532,900,16560,56,228,154
2599843718,3608,184,14600,178,193,78
2599845398,3492,1124,16024,390,524,-136
2599847079,3936,1880,15412,102,150,269
2599848837,2548,216,16672,109,152,98
2599850542,3388,1352,16516,256,234,-28
2599852266,3944,1544,16064,217,151,4
2599854011,4152,1660,16140,159,182,21
2599855747,4340,28,16048,116,474,16
2599857466,3628,-20,16168,142,324,-226
2599859254,3240,1680,16548,157,274,-388
2599860940,4232,2880,15600,121,528,-335
2599862614,3492,984,16204,-182,283,88
2599864359,2876,-44,16188,-114,161,-223
2599866078,3776,1844,16096,25,339,-527
2599867745,3516,1960,15996,16,284,-129
2599869486,2896,1648,16916,-74,207,-98
2599871161,2664,-188,16396,-116,15,-308
2599872831,3524,2072,16188,72,308,-478
2599874507,3712,1604,15692,67,336,-142
2599876182,3676,920,16352,53,433,-216
2599877851,2668,1504,16452,-118,310,-343
2599879572,2204,2028,16436,175,621,-467
2599881271,2104,3576,17160,149,439,-387
2599882980,2324,2696,16620,-167,512,127
2599884690,1756,816,17040,-63,325,-98
2599886398,1692,708,16380,44,244,-114
2599888106,-36,1088,17964,265,85,-322
2599889841,1032,3172,16912,38,348,152
2599891552,100,1312,17224,-22,-217,126
2599893260,1236,1208,16608,9,-193,26
2599894969,2028,2004,17120,66,44,-200
2599896676,2348,2460,16492,-107,-39,175
2599898383,2020,1064,16740,-106,118,198
2599900095,1292,548,16436,-241,-260,-93
2599901808,400,1724,17236,-58,-45,-332
2599903514,2376,2848,16332,-131,128,-82
2599905231,2280,2616,17480,-311,39,5
2599906998,1524,500,16036,-492,-315,-13
2599908757,532,1912,17800,-71,-372,-387
2599910505,2104,1404,15844,-334,-332,145
2599912216,2312,-32,16372,-313,-44,-52
2599913882,2884,672,16644,-222,-308,-284
2599915565,2788,2472,17256,22,-561,-474
2599917307,4132,3748,15584,-122,-410,-144
2599919068,2560,944,16804,-318,-3,112
2599920844,3188,1396,14896,-258,-250,-375
2599922535,2760,3088,17580,-118,-271,-241
2599924302,3668,3468,15988,-182,-253,-18
2599926265,3728,1800,16276,-370,-152,234
2599927987,3928,908,15328,-257,-322,-84
2599929700,3244,2256,17276,-159,-126,-85
2599931401,3780,2792,15512,-167,-223,47
2599933076,3780,2120,17144,-430,-210,304
2599934747,3940,72,15128,-346,-43,137
2599936436,3392,640,16748,-162,0,-49
2599938157,4564,1908,15404,-178,-129,129
2599939864,4780,1272,15688,-367,-144,192
2599941619,5148,-480,14488,-283,110,41
2599943325,4752,-112,15940,-82,291,-170
2599945044,5312,1900,13708,-183,219,-1
2599946756,2964,640,18260,-386,87,47
2599948466,3300,-560,15348,-144,342,-258
2599950180,2912,456,17276,-27,132,-448
2599951918,3936,2352,16112,-199,252,-106
2599953629,3976,1492,16916,-283,311,-79
2599955381,3660,912,16620,-299,57,-96
2599957176,3212,764,17208,-133,270,-329
2599959019,4240,1616,14600,-141,398,-147
2599960786,2736,1372,17292,-261,-33,-159
2599963364,2660,-268,15916,-182,231,-253
2599965062,4036,2264,16132,-31,155,-447
2599966807,3760,1984,15328,-204,322,-7
2599968505,3332,1364,15580,-268,205,-137
2599970166,3404,1188,15304,-175,461,-133
2599971827,1976,2000,17508,-138,9,-145
2599973481,2456,2016,16852,-133,613,-41
2599975153,1928,1952,18176,-235,306,-16
2599976827,2108,1140,16788,-47,379,-3
2599978497,1476,2192,17460,-171,15,54
2599980168,1024,1972,16808,-142,-26,84
2599981838,1128,3024,18296,-148,184,132
2599983563,1732,-996,15368,-133,-7,320
2599985263,576,-1020,18044,77,-1,-157
2599986973,2384,1360,15352,-14,-138,-43
2599988680,1536,2728,17112,-95,-168,-138
2599990388,2344,2440,16260,-366,-258,129
2599992099,2236,-812,16032,-216,7,-440
2599993831,3188,2048,16656,-246,46,-377
2599995539,2532,976,16192,-306,253,-417
2599997249,1664,1924,17544,-420,81,-451
2599998957,792,332,17328,-323,490,-304
2600000665,2528,2600,16348,-200,149,-435
2600002386,1704,2236,17720,-316,44,-194
2600004144,1532,2144,16732,-157,27,-285
2600005872,412,1784,17672,-125,-166,198
2600007623,672,988,16352,-101,-515,-39
2600009372,1788,1736,16400,-8,-301,-144
2600011116,4252,2228,17180,-22,-201,201
2600012847,2504,900,17384,-142,-578,184
2600014606,3936,1560,15464,-232,-134,173
2600016342,2848,1700,16928,-188,-104,35
2600018037,4088,1964,15024,-386,-143,281
2600019714,3496,-580,16232,-205,2,-199
2600021388,3868,1060,16108,-228,-123,-382
2600023060,4404,2496,15388,-266,-64,-81
2600024744,4240,1904,15020,-432,-90,80
2600026411,3180,76,16968,-319,204,-191
2600028067,3160,1004,16276,-280,-93,-264
2600029718,3652,2272,16772,-249,-15,-264
2600031368,4184,2948,16252,-350,-135,-164
2600033022,4204,416,16144,-410,289,97
2600034721,4052,796,16136,-176,109,-465
2600036419,3836,2464,17032,-276,161,-341
2600038136,4104,2968,16928,-366,79,-227
2600039848,4068,1256,15920,-393,429,190
2600041559,3852,-36,14820,-255,185,-132
2600043270,3804,468,16512,-179,355,-240
2600044979,4276,1264,15088,-222,159,-110
2600046691,4312,452,15524,-159,377,35
2600048398,4048,1768,15668,-164,134,-145
2600050106,4148,1824,15772,-230,393,12
2600051817,3884,2008,15828,-192,261,64
2600053526,3640,756,16644,-223,353,188
2600055242,2600,216,17136,-237,102,52
2600056955,3188,1308,16072,25,524,-76
2600058664,3636,2276,16496,-109,296,156
2600060380,2696,984,16716,-60,501,229
2600062089,2076,1704,17688,-2,316,96
2600063796,2712,2276,17312,26,456,387
2600065509,2868,2124,16328,-94,213,656
2600067247,2052,668,16340,-81,383,791
2600068941,1828,408,17028,228,169,327
2600070592,2984,1204,15996,111,259,596
2600072241,2092,832,17500,93,251,559
2600073887,3244,-24,16072,63,422,492
2600075535,2364,816,16272,-57,34,153
2600077182,2312,1428,15828,-131,141,178
2600078858,2860,1128,16204,-109,510,213
2600080550,2764,-1584,14796,-160,223,202
2600082244,2376,-2292,15756,-9,476,-145
2600083936,1932,-352,16360,15,326,-498
2600085708,32,1036,17584,79,352,-407
2600087424,0,2108,18752,71,50,-428
2600089143,1020,2844,18060,5,-109,-457
2600090853,1088,2712,17700,12,74,-90
2600092563,1044,2712,18492,250,-104,-167
2600094277,760,2368,18472,45,-527,153
2600096056,368,284,16988,199,-271,-150
2600097776,2572,2988,15928,259,-140,12
2600099491,2624,2100,15992,126,-356,136
2600101202,4520,2036,15260,123,-45,64
2600102910,4692,2280,15764,9,2,196
2600104621,1660,1040,15424,55,-164,288
2600106360,1564,416,17040,215,125,-107
2600108135,2952,1248,16496,89,50,3
2600109905,3144,348,16288,102,-102,57
2600111622,2892,2376,17812,69,-195,14
2600113321,3000,1592,16664,-43,-47,233
2600115059,1560,948,18312,-49,-296,152
2600116806,2988,964,16196,99,-233,-178
2600118512,3996,2548,15988,-76,-308,128
2600120195,3208,1364,16580,-10,-203,186
2600121871,5224,388,15320,-53,-319,-66
2600123546,4328,16,15072,-35,-85,-285
2600125216,4448,1312,15004,88,142,-420
2600126890,4120,1616,15280,-72,59,-42
2600128564,2952,-336,16220,-58,-88,-317
2600130232,3476,432,15652,5,-9,-506
2600131890,3412,1656,15828,95,-23,-341
2600134279,3940,2188,16240,80,-76,-209
2600135975,4032,328,16496,-2,67,-101
2600137722,4796,2408,14884,179,-85,-523
2600139410,4140,3016,15940,24,153,79
2600141106,3808,2216,16100,8,290,78
2600142796,2888,156,16704,39,172,115
2600144491,2868,1864,15924,196,-160,-195
2600146187,3632,2744,15376,168,169,-32
2600147941,3068,2844,16056,152,212,341
2600149646,2516,1568,17064,18,-49,437
2600151358,3020,1328,16472,170,20,153
2600153065,3620,2136,16072,237,124,243
2600154777,2856,1956,17116,212,31,555
2600156494,2204,-300,16900,171,24,514
2600158280,3200,976,15116,168,-11,135
2600159966,3384,1628,15712,258,102,152
2600161638,4136,2464,15716,100,128,532
2600163310,3196,-1100,15828,-55,315,498
2600164982,2760,-1228,16680,105,407,60
2600166655,2920,580,15024,20,287,182
2600168393,700,868,17748,265,348,-164
2600170095,2800,1860,16620,189,501,51
2600171749,1336,-880,17852,-19,29,115
2600173400,1184,712,17228,151,-76,-219
2600175051,1792,1388,15756,287,205,-219
2600176825,720,2052,18500,228,-179,51
2600178650,1316,-600,16632,168,-233,5
2600180355,2784,-68,15980,466,53,-422
2600182051,2872,964,16980,586,113,-319
2600183738,2768,2596,16336,339,-253,74
2600185441,1832,2360,16348,172,-199,-73
2600187139,3096,2512,15352,207,102,-55
2600188895,3628,2940,14984,303,148,-66
2600190606,2968,3040,16476,203,-89,159
2600192320,2088,876,17976,93,-112,290
2600194030,2488,520,15916,103,-236,95
2600195751,1952,2324,16968,305,-189,-252
2600197469,3484,4632,16872,134,107,308
2600199209,2504,3304,18456,-40,-219,522
2600200925,3376,1132,16124,-84,-309,290
2600202661,3700,424,14784,194,-191,53
2600204407,4372,2364,16136,181,-109,226
2600206170,4800,792,15732,-35,32,496
2600207924,4576,-720,15032,22,116,-86
2600209719,3472,1856,16480,157,-66,-88
2600211467,3204,1236,16408,70,119,265
2600213155,3228,168,16240,-57,-21,135
2600214827,2472,-596,16692,5,45,-355
2600216518,3776,1556,15664,394,259,-534
2600218205,3420,3588,16800,278,-24,-424
2600219942,2792,2176,17872,-276,-72,180
2600221618,3692,-304,15292,46,431,-390
2600223293,3572,1760,15436,285,84,-429
2600224970,3452,2280,16536,281,214,-233
2600226642,2716,1532,16296,-39,45,-8
2600228318,2772,640,16024,181,49,-259
2600229996,3476,1592,15784,337,175,-397
2600231659,3900,2996,15548,145,308,52
2600233322,2800,1764,16040,-33,133,36
2600234989,3768,1504,14888,-3,340,-71
2600236653,2960,1440,15556,122,195,-177
2600238316,2832,1868,16896,88,469,137
2600240040,2184,784,17576,2,329,65
2600241732,1768,708,14916,-45,92,-137
2600243438,2004,2224,18012,251,79,-522
2600245154,4388,3596,15736,146,56,-114
2600246866,2532,1484,17072,-101,142,236
2600248575,1808,944,16944,-13,169,-28
2600250307,1468,396,17304,356,139,-257
2600252044,2028,2304,17540,343,-117,-298
2600253756,2024,2460,16604,-5,-114,293
2600255468,3436,1180,16084,202,473,64
2600257264,4124,1536,16088,105,8,117
2600259034,3756,1208,15472,3,70,275
2600260789,2960,-248,15832,206,554,-45
2600262565,2496,1084,16548,99,247,144
2600264292,1756,-452,16956,194,139,-87
2600265998,3152,544,16376,221,223,-229
2600267690,2908,404,17760,114,105,77
2600269429,2972,392,16984,321,-18,-274
2600271193,2280,1312,17200,277,-135,-159
2600272926,2184,1924,17248,259,-203,-223
2600274630,3948,3672,15680,122,-291,-174
2600276327,5064,2236,14600,173,265,126
2600278034,4460,1596,16204,268,182,81
2600279737,4884,916,16056,122,95,258
2600281464,5284,-172,12084,360,399,-256
2600283168,4068,2304,14324,430,795,-304
2600284865,3780,1260,14956,332,1034,302
2600286558,2196,3376,16668,66,285,27
2600288251,2436,1344,15564,195,785,67
2600289941,3816,2456,18244,445,892,-193
2600291694,2732,1260,17324,-170,164,748
2600293408,140,-1132,19384,357,279,-332
2600295127,1188,1528,20020,279,-113,-324
2600296836,-724,548,17436,115,-730,64
2600298546,2332,2948,17476,293,17,-267
2600300257,4732,972,14952,-107,-89,231
2600301988,2476,1084,16296,-6,-267,-190
2600303696,3892,2796,14732,111,0,-135
2600306281,3160,1844,16876,-105,562,83
2600308044,3304,1076,14912,-286,419,175
2600309853,2088,616,16108,187,739,-600
2600311621,3320,3732,16976,58,554,39
2600313398,436,1408,17476,-139,157,50
2600315132,552,1144,17624,-106,132,-117
2600316836,1572,1648,17892,120,146,-348
2600318525,1904,3636,16884,-55,-566,212
2600320195,1616,736,17600,-105,-451,128
2600321858,3024,560,17328,-109,-270,-195
2600323591,2604,476,14976,-109,-369,-69
2600325270,2776,3488,16028,151,-120,-396
2600326955,4032,3664,16112,-129,19,-20
2600328637,1908,1124,16820,-459,-138,128
2600330317,3276,2280,14940,5,107,-347
2600331998,4160,3388,16488,-8,135,-152
2600333761,3756,2692,15792,-570,-176,523
2600335465,2568,-912,15356,-272,121,-138
2600337177,3844,1076,16692,-75,70,-360
2600338884,3464,2020,16816,-166,-148,-204
2600340592,3040,1312,15592,-354,158,41
2600342301,2220,364,17804,-222,55,-268
2600344057,1996,736,17564,-309,-285,-231
2600345770,2284,444,16160,-153,32,-437
2600347481,3500,1968,16828,-215,14,-197
2600349188,2040,-360,17332,-207,-69,-267
2600350895,2148,508,17328,-174,-188,-455
2600352605,3220,592,15760,-86,-13,-372
2600354319,3244,2524,17732,-87,-175,-304
2600356047,3832,1496,15620,-195,-136,-32
2600357824,3032,956,16816,32,-60,-540
2600359605,4140,3292,15988,-73,-119,-191
2600361321,4756,2180,15040,15,165,-236
2600363050,4540,2820,16196,-106,86,-183
2600364834,3808,1164,15084,-138,334,-18
2600366523,4776,3320,15108,-125,49,-98
2600368207,3448,1476,15908,-204,315,199
2600369886,3208,1248,16128,-108,270,-26
2600371567,3408,1088,16076,-183,298,189
2600373246,3216,1348,16324,-73,58,-130
2600374926,3844,2160,15592,-102,251,-1
2600376627,2648,1136,17976,-103,189,154
2600378333,2716,848,16828,-149,412,168
2600380075,1528,744,18472,-196,157,140
2600381785,2340,728,16896,-32,151,51
2600383494,2224,1148,17376,-27,-40,67
2600385202,3116,924,15296,-57,235,198
2600386908,2160,1456,17588,3,182,2
2600388614,3836,1908,14680,-92,-34,268
2600390322,2276,1188,16812,26,29,140
2600392057,2524,1420,15676,-27,-28,194
2600393767,1680,964,16980,179,149,16
2600395475,4076,3272,15376,34,4,270
2600397182,2172,2004,17572,94,157,256
2600398888,3008,2520,16392,81,-7,346
2600400598,808,1440,18468,-94,-119,373
2600402304,2968,3176,15452,-173,-4,266
2600404106,2148,1536,17812,-153,15,520
2600405871,2600,1300,16132,-218,-128,414
2600407595,1252,1380,18684,-425,-207,307
2600409297,2820,940,14924,-370,-126,302
2600410993,2528,764,16644,-215,102,211
2600412753,2976,276,14928,-393,-185,402
2600414520,2472,1244,18112,-326,-161,-73
2600416246,4124,432,13712,-265,-114,273
2600417963,3436,-104,15752,-79,156,70
2600419652,3956,404,14700,-227,137,60
2600421316,2208,1352,17360,-14,146,-368
2600422979,3432,2592,15352,-53,9,-178
2600424642,2188,1604,18320,-53,287,-67
2600426369,2640,1764,15144,-223,220,91
2600428101,1496,1104,17244,-112,333,-42
2600429817,2592,2696,16672,-129,-142,-155
2600431526,2008,1648,18176,-253,113,118
2600433234,4200,1688,13916,-253,-78,29
2600434942,3028,1816,17252,-238,146,-86
2600436676,4172,2080,14828,-475,-243,155
2600438393,2352,1060,17140,-196,9,-76
2600440104,3504,1368,15312,-352,-78,220
2600441814,2884,220,16424,-301,-54,95
2600443522,4240,1016,14840,-223,-45,-74
2600445229,3444,364,17516,-44,343,-142
2600446960,3624,1716,16744,-209,-114,-230
2600448669,3300,1516,16680,-255,485,28
2600450377,4368,2132,15620,-286,234,146
2600452088,3476,372,15536,-331,335,348
2600453802,1632,-44,17580,-150,-29,-364
2600455524,2040,856,16848,-96,308,-87
2600457341,3724,1420,15620,-165,-233,-211
2600459115,2248,440,18960,-152,18,-232
2600460847,3188,1048,16708,-172,-191,-318
2600462534,2600,1720,17956,-119,9,-255
2600464223,3336,1572,15468,-250,-268,-161
2600465916,4876,620,13656,-71,345,-212
2600467670,3680,2504,17396,-148,-62,-202
2600469363,3264,1132,15396,-59,496,-106
2600471058,3480,2728,16408,-92,397,-384
2600472751,3680,1096,14940,-201,619,295
2600474443,3076,1468,15156,-8,112,-172
2600476139,1740,388,17796,-31,471,86
2600478944,2932,1528,15400,21,113,-64
2600480693,780,1244,18444,-2,-108,-84
2600482415,3472,3596,17460,-141,303,-115
2600484128,3208,1412,16216,-426,-194,344
2600485840,3420,68,14692,-173,213,-27
2600487551,1680,1164,18748,-306,-228,-76
2600489328,784,44,16644,-189,50,-418
2600491025,1452,1436,16700,-182,-119,-542
2600492723,2952,2000,16124,-138,48,-311
2600494422,4304,2348,15784,-333,6,19
2600496116,3304,1200,16316,-359,191,-116
2600497809,3116,776,16288,-287,-26,-175
2600499560,3160,1504,15984,-1,393,-227
2600501264,2852,916,14788,-169,186,33
2600502974,1988,872,15736,-102,336,-143
2600504693,3936,1420,15784,-20,260,-175
2600506411,3460,2200,16372,-17,317,53
2600508123,1156,332,16364,-203,146,177
2600509912,144,1060,17436,-52,192,-269
2600511591,2252,3268,17220,-249,-55,7
2600513311,2360,1172,17484,-154,261,246
2600515041,1696,1112,18596,-224,-158,-8
2600516763,2700,1252,17176,-306,39,30
2600518460,3024,1580,15524,-60,-42,-142
2600520224,2832,2056,17184,-216,-30,268
2600522011,2092,820,16796,-314,-355,324
2600523728,2768,312,15580,-60,253,-106
2600525404,3796,1428,14640,-7,-153,-10
2600527072,4128,1604,16504,-48,125,108
2600528744,3968,1224,16080,-107,96,81
2600530500,3688,1336,15956,3,402,-9
2600532212,3736,1776,15684,-160,155,81
2600533939,3720,916,15456,-171,444,86
2600535659,2692,1284,17260,-126,203,-75
2600537368,2264,768,17272,-78,310,-83
2600539090,2232,616,17028,-151,71,-80
2600540882,1756,604,17300,-107,31,-145
2600542589,1804,1252,17848,-104,-288,-291
2600544296,3480,1760,16640,-120,16,-148
2600546013,3044,1576,18028,-128,-160,-99
2600547722,4144,748,16264,-146,-91,82
2600549454,4408,172,14884,59,110,-263
2600551246,3908,1808,15808,-26,166,17
2600552949,3436,620,15076,13,301,136
2600554666,3852,1392,15124,150,184,-294
2600556429,3416,1476,16504,-1,157,206
2600558159,3388,1312,15640,204,411,167
2600559844,2892,844,16448,188,267,207
2600561611,1912,140,17552,149,15,11
2600563305,2752,1332,15980,285,197,-81
2600564999,2184,2240,17756,287,38,-54
2600566694,2984,2128,17536,116,183,315
2600568387,3612,448,17040,-88,54,321
2600570079,2488,548,16992,67,-172,-20
2600571825,2676,1524,16288,100,5,67
2600573534,2256,1132,16724,91,-114,166
2600575256,2560,-928,16456,142,-110,188
2600576968,2844,-1060,15368,314,-135,-89
2600578677,2440,868,15232,350,-245,-185
2600580385,2392,740,16112,426,280,-153
2600582118,3744,2080,16620,389,162,-245
2600583826,2600,2924,17900,173,-209,-144
2600585534,3304,2468,15468,140,406,-117
2600587242,2844,1760,17196,192,464,-122
2600588948,1448,1004,18664,104,50,-135
2600590659,1680,1220,16796,124,18,-478
2600592367,1160,3200,16788,95,46,-320
2600594075,-332,2340,18148,30,-465,-101
2600595782,584,2216,16952,-30,-592,-165
2600597490,1756,1736,16492,-110,-624,-216
2600599197,3528,2436,16436,136,-295,-98
2600600904,3900,2404,16152,111,-386,58
2600602613,3992,432,16576,71,-97,196
2600604344,3968,936,16784,76,8,-107
2600606156,4144,1560,13712,286,463,-117
2600607993,2956,2996,17340,139,439,335
2600609850,2264,1556,16780,-57,124,491
2600611599,1416,272,16372,68,-88,-90
2600613602,2344,976,15704,218,79,124
2600615395,1972,2076,17468,249,-289,-72
2600617142,1792,548,17376,-76,-541,73
2600618835,2892,884,16356,45,-375,-308
2600620496,3896,3448,16968,48,-226,-16
2600622144,3208,2316,17560,-60,-194,212
2600623854,3852,1600,16408,-137,-156,225
2600625525,2988,28,17060,-115,-138,169
2600627201,3480,728,15412,139,-34,-36
2600628871,3540,1256,15244,146,-23,95
2600630541,3832,1448,15408,-5,77,225
2600632210,4332,-496,14764,79,173,104
2600633928,4576,-1020,14932,257,162,-46
2600635633,4036,992,15656,512,318,-461
2600637351,3300,2340,16440,172,216,39
2600639066,2516,1676,17168,232,73,-243
2600640773,3020,1888,17048,166,97,-162
2600642478,2704,2040,16324,205,-95,-196
2600644184,4428,2984,16716,53,95,32
2600645898,4112,1916,16940,-43,84,153
2600647614,3140,1132,15240,16,201,-57
2600649332,1492,1220,17408,255,40,-263
2600651893,2544,3000,17016,137,112,-31
2600653621,2664,1880,15132,5,130,129
2600655369,3788,1424,16196,107,53,-39
2600657262,5136,2392,16296,98,-37,73
2600659057,4496,1280,15504,-66,374,441
2600660762,3260,-228,15892,-16,426,386
2600662464,2344,-1392,17088,313,481,-196
2600664248,3980,876,14988,255,542,-91
2600665940,2196,808,17496,302,481,-76
2600667627,3920,2992,16064,167,431,45
2600669309,1436,-820,15684,86,150,112
2600670989,1232,2632,17180,276,-52,-333
2600672669,1848,2352,16580,139,8,89
2600674404,2060,-44,16620,125,-131,27
2600676110,2148,-1220,16720,332,26,-260
2600677823,3196,448,16828,477,51,-536
2600679532,4712,4540,17856,142,-213,-85
2600681239,3232,696,16396,-1,506,361
2600682950,2592,-280,16244,335,395,-246
2600684683,1084,408,17500,256,-27,-317
2600686391,1956,2004,15160,398,34,-471
2600688149,3268,4224,15188,210,348,6
2600689877,2768,2820,16620,99,130,240
2600691590,3988,2036,15908,24,165,1
2600693321,2732,1840,16400,55,-23,103
2600695053,1184,2536,17648,68,46,95
2600696774,2392,1408,16604,1,17,174
2600698489,2364,1724,17384,53,-9,-14
2600700198,2920,1896,17104,164,148,257
2600701905,2300,1744,16648,143,-19,246
2600703612,1820,1128,16820,109,-142,271
2600705346,1292,676,17276,214,-121,176
2600707067,2652,2196,15764,213,-200,43
2600708772,2968,2416,15672,95,-135,270
2600710471,4120,312,16008,180,101,-44
2600712165,5192,2128,15212,-47,60,28
2600713860,4416,880,15412,-46,324,112
2600715606,3728,3144,16120,-11,518,-348
2600717398,1588,788,16460,-157,263,221
2600719138,2052,1104,17392,7,12,-398
2600720820,2268,1412,17156,-110,-36,-204
2600722483,2088,1204,15600,134,14,-249
2600724144,2736,1120,16568,123,-28,-161
2600725800,3472,752,16924,122,-103,-305
2600727471,4600,2736,16468,17,-65,-181
2600729154,3876,2024,15568,148,206,-184
2600730836,3960,2416,16308,168,357,-184
2600732514,2848,1504,16936,-104,18,40
2600734193,2288,1560,17168,111,37,-283
2600735875,2912,2520,16092,58,-126,-156
2600737575,2976,1468,16608,-44,-72,47
2600739283,4656,1236,15560,-116,-84,-39
2600741013,5572,332,14124,21,230,-188
2600742720,5328,1420,15424,106,244,-340
2600744426,4160,1524,15708,-59,568,128
2600746159,3480,-728,15156,-5,607,-134
2600747872,2312,116,17108,57,507,-392
2600749583,2672,1924,16016,37,379,-201
2600751292,3620,2032,16352,194,560,-158
2600753003,2944,1044,17420,-76,64,64
2600754715,2388,-68,16168,46,97,-82
2600756581,1948,2080,17476,215,129,-300
2600758317,2236,1044,16732,208,152,-159
2600759999,3644,1768,17024,21,98,54
2600761708,3384,248,16656,68,112,145
2600763393,3668,2020,16112,194,-61,-293
2600765072,2156,396,16284,84,298,111
2600766807,1792,956,16684,182,189,-357
2600768508,2920,1800,14524,-69,248,-59
2600770215,3124,3852,15760,48,104,-550
2600771921,3560,3312,17268,-292,659,171
2600773629,2636,1384,17732,-338,229,90
2600775337,2420,424,16748,-136,436,-298
2600777068,748,628,16548,-169,101,-218
2600778778,-28,948,16720,23,238,-305
2600780485,80,2788,18784,-182,-407,-142
2600782191,2204,1156,15896,-55,-162,-302
2600783905,4604,3044,15972,-41,96,-123
2600785613,3032,2788,17756,-71,49,-2
2600787344,2388,3388,16480,-287,-362,266
2600789053,1168,108,16748,-169,99,88
2600790760,2268,1232,16528,-63,49,-146
2600792466,1336,1812,16312,-251,-91,300
2600794210,5072,1596,15708,-107,70,-36
2600795915,3200,708,17140,-258,222,349
2600797646,736,-412,16220,-192,-451,272
2600799351,-292,1176,18116,40,232,-203
2600801060,2732,1196,15648,-224,41,4
2600802766,1484,824,16788,-129,-67,-60
2600804494,2464,1836,18216,47,-268,-319
2600806226,3724,2064,17040,-266,-24,-38
2600808055,1364,1344,17156,-268,-282,-196
2600809757,1356,1508,16304,-144,-334,-306
2600811440,1212,3232,17624,-276,-295,-254
2600813120,1476,2032,18036,-219,-262,-128
2600814798,2436,2764,17404,-202,-545,-227
2600816504,4328,856,15612,-389,-336,168
2600818242,4556,1236,16144,-159,-103,-362
2600819955,4360,1216,14764,-237,-12,-108
2600821663,3660,1824,16080,-183,-84,-302
2600824065,3532,468,15368,-361,383,79
2600825756,3068,504,15956,-314,-16,-247
2600827416,2576,544,16512,-402,255,-26
2600829071,2648,476,16888,-196,209,-557
2600830741,3104,1120,16428,-290,-70,-445
2600832421,2168,384,19500,-318,19,-512
2600834101,3640,336,16192,-423,201,-422
2600835794,2116,-260,19176,-327,26,-636
2600837490,3884,876,15256,-323,-208,-622
2600839238,2852,196,15232,-307,-185,-738
2600840940,2336,2016,16428,-282,28,-862
2600842651,3272,2540,15460,-273,99,-794
2600844358,3948,3396,15560,-281,189,-672
2600846064,2948,1968,16644,-245,51,-374
2600847773,3880,1908,16456,-187,165,-461
2600849551,2372,1588,16728,-423,-419,-182
2600851259,4864,1028,16076,255,541,-580
2600852960,4828,3860,16652,-266,-513,357
2600854662,4308,612,13748,-294,-187,572
2600856365,4856,2012,16504,41,204,-246
2600858180,4064,668,14348,-94,116,371
2600860145,3364,1812,15608,-74,-14,-7
2600861843,2780,1416,17080,-195,353,113
2600863607,3212,2192,17360,-303,57,13
2600865421,2720,636,15320,-254,133,224
2600867150,3476,2296,17212,-110,381,-183
2600868832,1788,-868,18144,-340,122,221
2600870592,2076,-724,17304,-130,-19,-224
2600872285,2832,2292,16860,-147,100,58
2600873982,2016,2260,17876,-102,-152,123
2600875701,3400,2836,15788,-194,-117,269
2600877418,3372,964,16812,-205,115,226
2600879117,3912,1996,15076,165,263,187
2600880888,1776,600,16016,69,-155,623
2600882599,2256,-24,13840,186,71,323
2600884321,2548,2768,16952,6,293,465
2600886040,2640,504,15180,307,342,491
2600887757,3740,2268,16532,421,296,160
2600889467,4776,2260,15768,-199,469,946
2600891204,1092,20,17816,46,284,324
2600892915,-96,-48,16884,37,244,200
2600894625,448,1020,17708,53,117,-188
2600896343,4016,2928,15428,-334,623,410
2600898060,-152,596,18096,-480,-437,322
2600899770,2204,-48,15232,-304,-253,-102
2600901504,1332,2812,18048,-373,-349,-222
2600903216,1928,564,15416,-439,38,297
2600904940,2132,808,18568,-402,-226,-194
2600906659,2452,-68,15904,-461,-405,-128
2600908369,2828,2328,17656,43,-56,-618
2600910079,3488,1128,14808,-143,240,161
2600911811,2740,1356,16304,-268,-14,-441
2600913509,2008,1396,15212,-284,-50,-328
2600915177,3816,3080,15716,289,341,-747
2600916841,3976,3444,15412,-493,10,379
2600918550,2148,176,15788,-519,292,197
2600920282,3932,1744,15484,-104,291,-712
2600921997,2532,2844,18248,-299,-211,-220
2600923716,3536,2440,15032,-417,-46,-85
2600925383,2448,856,18136,-501,203,-243
2600927039,3080,1052,15532,-582,-400,-453
2600928696,4476,1260,14804,-432,11,-496
2600930353,4576,1644,15856,-565,78,-257
2600932029,2668,-284,17608,-624,13,-266
2600933752,2568,-816,16172,-588,-362,-459
2600935456,3372,656,16696,-178,207,-818
2600937204,4076,1992,15068,-299,144,-185
2600938970,3912,1044,17044,-246,122,-444
2600940703,4488,1164,16368,-333,-36,-408
2600942410,4260,1496,16384,36,335,-415
2600944203,5048,3092,15096,-139,419,93
2600945909,3008,80,16880,-207,447,43
2600947597,2852,180,16356,-76,241,-172
2600949293,2536,1284,16928,83,264,-191
2600951044,4120,2708,15372,-85,314,50
2600952842,2796,272,17944,-311,103,338
2600954583,3312,-864,15372,-150,-12,67
2600956307,2560,1796,18596,10,-120,-278
2600958074,3300,1172,15796,-80,298,194
2600959883,3528,928,16056,-202,43,153
2600961630,3144,-536,15484,-165,35,113
2600963316,3660,2476,16732,239,214,-434
2600965011,5200,3032,13888,44,596,298
2600966698,2732,3380,17524,29,551,149
2600968374,4840,2568,13556,-87,466,518
2600970048,1960,1600,16788,-12,314,480
2600971718,3632,440,14200,112,688,544
2600973388,1648,1536,18904,-56,386,414
2600975066,672,-564,17000,-17,154,575
2600976774,2932,2668,17872,46,11,241
2600978490,3804,1472,16092,-231,183,675
2600980202,304,92,19464,-57,-21,61
2600981910,644,-1048,16244,84,33,331
2600983625,-960,-1032,18932,124,-438,-116
2600985345,2268,944,15408,-18,29,46
2600987066,2672,-24,15944,92,86,-174
2600988782,4244,700,16592,2,165,-291
2600990492,3472,688,17424,-18,160,-396
2600992204,2280,2268,15024,21,166,-256
2600993915,-356,1528,18580,120,57,-421
2600996546,688,1400,17504,-60,22,-209
2600998279,1320,2544,16384,268,36,-510
2600999993,2020,3724,17188,30,-570,6
2601001738,2212,2720,17080,-87,-437,154
2601003454,1824,2120,15960,-151,-370,7
2601005216,2524,1932,16496,13,-273,42
2601006988,2044,1048,18288,21,-423,23
2601008762,4480,1184,15772,14,-326,51
2601010485,4188,1276,16568,62,-268,89
2601012173,3836,1028,14536,64,14,188
2601013864,3344,744,15412,135,75,104
2601015543,2684,780,16688,163,-83,90
2601017223,3792,1000,15288,250,-103,124
2601018887,3756,2008,14556,150,-70,318
2601020590,2808,1024,16840,164,113,347
2601022281,4360,984,15768,190,-302,218
2601023938,4152,1140,16040,145,-375,30
2601025590,5492,1828,14964,123,-127,-32
2601027304,4672,872,16652,8,239,255
2601028974,3480,-672,16908,94,158,-95
2601030654,3192,-216,16304,119,137,-273
2601032333,1828,1200,17192,106,60,-476
2601034012,1644,1304,17364,26,23,-244
2601035688,2180,476,16436,65,-198,-331
2601037426,3468,1468,17288,7,-201,-542
2601039132,4220,1724,15712,129,-36,-487
2601040843,4452,2276,16124,-29,-86,-100
2601042551,3248,392,16256,-66,-147,-35
2601044261,3460,1316,16300,246,6,-614
2601045970,3988,2540,15128,166,-42,-197
2601047749,4604,2472,15436,76,224,-26
2601049447,5252,1596,15412,91,327,5
2601051140,4732,2048,16908,177,231,-65
2601052846,3152,1048,14984,91,440,426
2601054555,1704,972,16540,216,528,94
2601056260,1920,648,17528,168,239,264
2601058033,2660,396,17000,345,56,29
2601059769,3128,852,17028,276,89,109
2601061526,3188,1176,16932,273,98,69
2601063229,1808,1356,16804,179,-233,51
2601064912,1648,1708,17748,249,-316,-91
2601066597,3840,2336,15760,166,-295,27
2601068354,2512,1408,16172,155,25,195
2601070044,3260,92,15636,111,203,139
2601071741,2964,100,16548,214,110,-266
2601073433,2972,1184,15736,147,73,-217
2601075124,2168,1668,15956,-14,208,-262
2601076816,2316,1276,16812,-137,460,-209
2601078568,1216,-260,17584,-98,262,-180
2601080275,1460,444,17732,240,-49,-825
2601081989,604,1324,18180,-44,-276,-450
2601083696,1204,860,16420,8,-89,-509
2601085404,192,1084,17740,95,-245,-612
2601087115,2584,4128,18260,395,-104,-946
2601088848,3528,6292,18300,-346,-300,466
2601090556,1544,3020,14572,-398,-272,840
2601092265,888,724,17752,368,319,-93
2601093971,2204,1664,17744,233,-128,434
2601095678,3104,1080,15676,301,-322,621
2601097388,2604,3728,15896,424,67,511
2601099119,2024,208,17100,241,63,901
2601100827,2808,732,14892,382,-244,567
2601102533,4284,-52,14036,482,100,481
2601104248,4468,2560,17896,436,76,140
2601106010,3232,-56,15892,110,80,524
2601107793,3396,2324,17316,419,236,-438
2601109621,3772,3296,17684,180,217,-59
2601111316,2020,1864,15832,-79,-214,20
2601112993,1264,664,17672,44,187,-294
2601114661,2232,176,17700,101,-102,-438
2601116334,2936,2536,16484,-72,-697,-458
2601118005,3300,2920,15828,-24,-198,-535
2601119723,5116,3152,16708,-297,31,-300
2601121456,4656,1256,16464,-367,-175,-291
2601123201,5092,1820,15424,-72,114,-804
2601124927,5276,3096,15312,-296,175,-145
2601126639,4276,1600,14948,-301,264,-100
2601128353,4176,-320,15560,-176,496,-270
2601130139,4164,-252,15276,92,444,-485
2601131845,3952,2600,16328,117,213,-242
2601133542,4488,3196,15480,-68,232,62
2601135237,4092,-1144,16292,40,711,311
2601136930,3712,-544,17220,321,352,-79
2601138620,2376,-96,17200,284,10,16
2601140313,1828,1612,17232,512,221,-161
2601142015,2584,1100,16252,175,111,627
2601143721,2792,-696,16744,469,94,-150
2601145428,4440,988,16608,337,40,-108
2601147136,4972,1232,15984,379,255,-137
2601148842,5000,1984,14380,128,615,270
2601150617,3372,-228,15980,166,778,152
2601152319,1708,1100,17140,99,525,-242
2601154015,1680,216,15280,215,781,-374
2601155717,3504,3000,16436,110,678,-267
2601157413,1852,892,16948,19,752,118
2601159104,1928,1672,17656,196,330,-549
2601160860,300,1652,17500,115,-146,-169
2601162594,104,2272,16996,185,-88,-289
2601164304,828,1372,16468,150,190,-242
2601165970,2864,2104,17976,167,7,-433
2601168452,4028,1944,16444,107,100,-146
2601170155,3496,2536,15936,90,221,-34
2601171886,432,-40,18248,169,321,-202
2601173576,388,1344,17560,205,101,-424
2601175275,-344,1480,16372,206,62,-101
2601176970,1948,4476,17068,274,-266,-310
2601178662,3000,4304,16492,61,-400,138
2601180355,3948,2196,16852,154,-32,35
2601182109,3420,1260,15712,-71,-157,338
2601183813,1776,1716,16240,197,-235,-416
2601185522,2080,2996,16976,98,-124,-228
2601187230,2724,1596,15764,41,-20,-114
2601188939,4660,2896,15628,-201,-290,-20
2601190645,4212,1412,15276,-204,6,111
2601192376,2604,2068,16096,-51,-170,-131
2601194086,796,-44,17336,-132,-168,-55
2601195792,3092,1152,15980,-80,63,-348
2601197500,2924,2044,16824,-36,82,-252
2601199208,2776,2172,17140,6,35,49
2601200914,3888,1060,17588,-85,211,-113
2601202643,2680,1048,18996,-239,-191,-33
2601204380,2084,1220,17164,142,19,-220
2601206137,3092,2516,15276,-46,-93,192
2601207912,1732,1168,17504,-58,-341,-102
2601209767,2876,940,15924,13,-377,144
2601211676,3668,1532,15892,196,-325,-250
2601213557,4060,2676,16436,23,-386,-68
2601215259,3312,1320,16416,-29,-105,79
2601216935,6060,1388,11008,-136,151,-18
2601218601,5036,1124,15056,51,584,-189
2601220317,5460,4444,16908,-321,400,80
2601222020,3048,-776,13904,-304,805,157
2601223750,2476,2788,19540,-123,567,-444
2601225459,1828,2392,18456,-409,303,186
2601227166,1956,1296,16096,5,0,-436
2601228853,2176,2568,19572,-328,112,134
2601230536,1896,20,17856,-431,-328,219
2601232221,656,-48,18228,87,-362,-408
2601233965,3036,2364,15356,-37,-522,-342
2601235670,3832,3992,16556,-330,-396,-20
2601237389,4532,2520,15480,-396,-327,226
2601239113,6124,828,14928,-94,134,-212
2601240824,6208,2836,14860,-335,-179,22
2601242548,5772,1512,14288,-294,284,234
2601244292,4760,1072,14472,-215,244,13
2601246021,3100,-1348,15572,-203,463,-30
2601247728,4120,1744,14592,-17,307,-323
2601249422,4452,1184,15492,-27,419,-16
2601251112,4340,1016,16556,1,293,-149
2601252803,3172,304,15596,-112,293,15
2601254501,1232,236,17428,27,280,-211
2601256204,2108,2328,17112,99,270,-331
2601257905,2280,3020,17584,-299,-173,23
2601259599,2996,1308,16036,-314,65,158
2601261290,3072,1604,18764,-17,200,-374
2601263060,3196,2216,15860,-231,15,159
2601264847,2224,1168,16204,-19,402,-71
2601266548,1756,1256,17108,-130,143,55
2601268216,912,-1336,16192,-33,227,-189
2601269882,2840,1584,14820,128,512,-293
2601271544,1560,2044,17576,115,364,-186
2601273207,4348,2828,16236,-143,173,0
2601274925,2488,688,16344,-165,382,-81
2601276622,1356,788,17416,-20,252,-312
2601278331,-432,2180,18464,-52,125,-168
2601280074,1128,2576,16392,-232,-429,-284
2601281784,1664,2092,18432,-283,1,61
2601283490,1864,1280,17488,-271,-372,68
2601285225,1864,1728,18356,-136,-181,-240
2601286933,1952,1956,16472,-388,-412,104
2601288640,2808,1272,15620,33,-12,-275
2601290349,2796,2724,17020,-38,-99,-179
2601292077,3260,1620,15660,-282,77,128
2601293782,4280,2004,16432,-175,35,-21
2601295575,3080,84,15480,-160,-26,89
2601297344,2028,508,16168,-147,-149,-151
2601299054,1916,1744,16272,-132,169,-301
2601300767,3440,3312,16736,-325,-100,-46
2601302463,3788,1660,15728,-443,-193,113
2601304190,3304,524,16920,-287,-161,-460
2601305966,3832,1396,17084,-402,201,-243
2601307815,3164,1276,16456,-455,-97,-442
2601309615,2472,324,17060,-460,-9,-477
2601311347,1896,260,17764,-422,-219,-606
2601313066,2516,672,16648,-428,-43,-613
2601314767,3092,1196,15988,-374,-252,-851
2601316459,3908,2336,16088,-386,-103,-818
2601318145,4056,1776,16156,-357,-171,-482
2601319824,4980,2312,15220,-375,-24,-353
2601321530,4320,1672,16036,-414,46,-286
2601323241,4832,1636,14540,-123,224,-379
2601324929,4004,1420,15640,-119,-16,-44
2601326613,4144,812,14596,-139,123,-68
2601328307,3508,1992,17196,-69,109,-315
2601329997,4568,2400,13808,-110,188,197
2601331686,4220,1372,16656,-137,219,15
2601333376,4260,1088,16352,-272,232,77
2601335065,2892,16,16604,-134,334,-93
2601336822,3764,1668,15512,-151,159,-220
2601338525,3240,1064,16792,-268,360,-55
2601341100,2904,1332,17192,-175,374,-363
2601342822,3360,1040,15564,-296,-56,-260
2601344530,3116,1940,15936,-118,247,-497
2601346238,3232,3112,16828,-350,27,86
2601348071,2332,304,15988,-144,197,-158
2601349794,2680,1564,16684,-250,-27,-34
2601351492,3192,936,13820,-108,95,1
2601353285,3140,2656,17556,87,197,5
2601355058,2816,1304,15832,76,498,329
2601356790,3368,3532,16120,-80,287,420
2601358608,2376,728,16280,162,401,408
2601360308,2732,1640,17152,201,292,214
2601361984,2404,-1124,16620,-145,404,744
2601363703,2444,-704,17436,68,123,-118
2601365513,2740,456,16852,-104,132,85
2601367215,516,192,18048,-98,-118,-217
2601368965,2852,1348,16504,-288,325,-81
2601370636,2664,256,16188,-446,-217,-341
2601372301,2696,656,15848,-197,8,-617
2601373962,2488,2868,17016,-244,-155,-203
2601375624,2088,128,16204,-219,-64,-112
2601377287,1740,540,16604,-258,-218,-286
2601378989,3212,1340,15236,178,330,-568
2601380687,4192,5644,16580,46,205,-58
2601382395,4816,3988,15232,-177,295,463
2601384105,2332,2204,17288,-48,336,100
2601385818,652,896,16312,-23,469,463
2601387526,532,148,17164,205,325,142
2601389258,2288,2648,16404,28,-97,290
2601390975,848,1020,18832,-177,85,402
2601392694,2928,548,15748,-171,-285,159
2601394405,1688,772,16948,-102,-277,10
2601396120,3396,1428,15580,-267,-34,64
2601397837,2716,1332,19084,-366,-194,-330
2601399570,3700,1896,16404,-531,-398,-91
2601401281,3940,1368,15896,-170,-41,-437
2601402984,5076,2108,15612,-520,52,211
2601404714,2548,-988,15688,-341,32,-332
2601406505,3188,460,15292,-256,-48,-553
2601408289,3352,624,15360,-81,184,-409
2601410159,4228,3584,15116,-136,101,-129
2601411868,2776,296,17104,-280,-22,-53
2601413534,3624,672,15764,-188,-5,-385
2601415197,4316,1224,16432,89,286,-255
2601416858,4296,2668,17092,-80,-10,-178
2601418521,4312,1316,16060,-245,195,138
2601420230,2616,488,17328,-38,70,-430
2601421966,2772,1284,16600,-50,66,-206
2601423728,4060,2184,15748,-68,64,-252
2601425479,3592,2256,16980,-190,166,1
2601427199,3656,448,15244,-158,-116,-140
2601428919,4028,2388,15524,-22,-23,-196
2601430718,3932,2168,15612,-207,118,150
2601432426,3964,672,15072,-158,299,248
2601434130,3596,524,15904,-65,114,-198
2601435830,3848,1788,16264,19,318,-140
2601437523,3908,2436,15824,27,392,6
2601439236,3280,1064,16384,-38,491,308
2601441016,1960,368,17072,-21,208,-58
2601442707,2080,616,15744,113,366,-3
2601444392,1852,1068,16484,262,437,-145
2601446089,2024,2088,17476,-38,193,220
2601447782,1416,-324,17800,-63,85,-47
2601449465,2504,-24,17188,56,246,-156
2601451204,2304,132,16968,120,-12,-174
2601452908,1440,1660,18320,100,-145,-296
2601454647,836,516,17296,-69,-169,-17
2601456376,1916,328,15484,58,-149,-241
2601458089,2824,1776,16384,79,19,-253
2601459824,3244,912,15724,121,-64,-28
2601461622,2796,-436,16436,228,-90,-44
2601463302,3132,-1328,15368,298,18,-177
2601464970,2488,1844,16396,529,126,-628
2601466709,1388,4024,17192,385,12,47
2601468414,2156,3708,16580,317,12,184
2601470072,3112,2820,16472,-62,-290,233
2601471800,2624,816,17428,267,149,-174
2601473477,3660,2332,16440,395,38,-179
2601475157,1092,2036,17604,34,-359,384
2601476839,1184,352,15828,-96,-387,160
2601478516,2084,-236,14892,116,-137,-91
2601480189,3872,2768,17168,301,-111,-339
2601481909,4808,3032,15492,-178,6,361
2601483607,3180,1136,16444,-70,-189,83
2601485324,3664,904,15672,72,-25,91
2601487044,3208,112,15424,153,-182,101
2601488760,3744,1060,16616,196,175,-11
2601490469,3808,764,16760,151,102,104
2601492202,3912,776,15280,261,-257,-123
2601493914,3256,2108,15620,227,-109,-35
2601495632,3544,1912,15580,166,238,80
2601497353,2672,2256,17248,40,-11,-57
2601499067,3312,1324,15668,-82,269,129
2601500778,4000,1880,17056,126,32,-203
2601502490,4028,2080,17228,4,-76,65
2601504204,2792,-16,16876,-23,152,29
2601505971,3268,180,15944,44,202,-227
2601507727,2288,1224,17204,272,-341,-437
2601509457,3796,3036,15524,254,-254,-334
2601511194,2668,1876,16668,-128,-209,371
2601514171,3440,1044,16456,236,-252,-412
2601515901,3900,2212,16200,87,-334,-99
2601517575,4364,2392,15672,114,199,-127
2601519244,3544,2376,16272,3,-91,-48
2601520907,3804,628,15404,39,315,-138
2601522571,4712,1676,15100,98,504,-202
2601524286,3700,1864,16652,127,513,-107
2601526012,3648,2532,16664,-86,318,-63
2601527716,2844,512,15548,-1,640,-18
2601529415,2252,1444,17236,186,669,-220
2601531108,2452,2444,16748,-73,315,278
2601532796,1092,1064,17832,-131,-64,140
2601534504,1744,468,16112,-84,135,278
2601536217,896,-1004,18024,272,-207,-132
2601537920,2788,1428,16416,176,-182,81
2601539615,3040,1496,17040,239,7,49
2601541308,3592,1384,16376,163,-119,254
2601543000,2804,-1480,16372,351,91,-110
2601544733,4552,2748,15036,283,198,-227
2601546435,3588,2268,15712,152,435,126
2601548138,3116,552,14784,146,324,-92
2601549829,2820,208,16680,210,308,-403
2601551522,3532,2172,16056,244,353,-374
2601553225,3132,2504,15500,153,330,-181
2601554950,1864,1308,17824,92,294,-272
2601556664,1116,516,17376,124,241,-466
2601558408,984,912,16680,300,108,-631
2601560229,2128,2900,19124,445,333,-459
2601561994,2164,1800,17108,-39,-290,23
2601563705,1432,440,18052,467,-81,-705
2601565434,2724,3496,17616,475,-301,-706
2601567193,2972,3924,15788,61,-419,123
2601568904,3536,4368,17668,63,-230,-16
2601570563,3948,-104,14552,-170,-37,535
2601572225,3500,-920,15440,154,-158,-132
2601573882,5236,3180,15132,35,106,126
2601575601,4540,0,14748,85,508,204
2601577291,3952,1260,15952,56,294,-75
2601578992,4136,-24,15132,3,514,207
2601580689,4948,1512,15256,250,512,-147
2601582391,4252,1724,16032,71,665,219
2601584093,1160,-540,16728,47,179,3
2601585811,900,-344,18560,316,182,-267
2601587526,2228,1216,17684,367,-104,-294
2601589229,2184,2148,18232,262,-94,-245
2601590925,1832,1200,17596,58,-260,-41
2601592618,2904,1084,16300,265,-121,-428
2601594311,2872,2456,17352,235,-264,-414
2601596106,4172,3052,15452,101,47,-148
2601597824,4148,2608,14636,-106,299,8
2601599631,3508,848,16056,61,183,-293
2601601340,4612,1832,14828,111,291,-401
2601603047,4020,948,13816,-43,463,91
2601604783,2368,1736,17120,138,545,-428
2601606516,1820,328,15524,-1,450,-31
2601608290,1208,620,16400,263,413,-481
2601610044,2320,4516,18848,68,259,-39
2601611779,1768,800,15928,-89,-1,62
2601613490,2544,1304,18376,102,132,-320
2601615197,2480,1848,18276,75,-17,-263
2601616986,2224,2136,16500,-35,-426,-39
2601618670,2296,1444,17244,-70,-110,-17
2601620343,2600,716,15980,-113,-138,24
2601622016,2360,864,16044,128,-48,-395
2601623687,4416,3300,16164,66,127,-196
2601625366,4668,3044,16028,-145,59,53
2601627091,3932,668,14712,-156,339,106
2601628795,4016,464,15124,148,470,-459
2601630511,3636,864,15312,-57,410,-99
2601632222,2944,244,15144,121,637,-270
2601633933,3364,2544,16448,-30,253,-211
2601635698,2404,-356,16632,47,186,-277
2601637554,3656,1720,17872,191,425,-286
2601639277,2352,1188,17912,41,61,-85
2601641031,1288,788,17172,102,25,-332
2601642812,1240,300,17208,159,92,-265
2601644550,2636,2112,17112,283,-81,-524
2601646288,3232,2936,16316,117,-74,-193
2601648057,3372,1044,17208,60,165,-224
2601649817,3604,1520,16264,80,28,-299
2601651571,3128,3028,15388,175,208,-361
2601653269,3116,4272,16164,96,325,-257
2601654948,2760,2588,16108,-235,196,338
2601656716,3836,-92,14692,78,282,-230
2601658500,4220,1964,16676,186,341,-139
2601660178,3732,1832,16264,99,349,130
2601661849,1944,1896,16368,51,340,2
2601663520,532,1768,17588,-36,-18,47
2601665199,1332,1768,16924,57,82,-130
2601666877,2368,3144,17000,7,45,210
2601668602,2068,884,17904,-108,-118,206
2601670303,2520,484,17344,-101,-160,67
2601672048,2268,132,16228,44,-86,-66
2601673774,2356,3044,16868,9,-241,-202
2601675502,2544,1860,16704,-297,78,203
2601677219,2584,1292,16516,-286,-19,6
2601678958,3720,1772,16048,-181,0,-154
2601680669,3796,2420,15156,-99,-17,-95
2601682378,2888,2080,16012,-208,-30,150
2601684088,2384,-764,16240,-119,106,-118
2601686660,3412,2776,16812,45,245,-258
2601688388,2984,3352,16768,-31,40,-69
2601690171,2960,1976,17176,-167,85,146
2601691871,2344,724,16588,-275,-3,-4
2601693575,1864,1920,17112,40,11,-313
2601695284,2568,2820,17392,-30,-30,-130
2601696988,2200,528,17044,-291,-124,35
2601698680,2596,772,16028,-347,-387,-293
2601700438,1908,1724,18032,-18,-301,-596
2601702148,3920,3684,15544,-200,-366,-380
2601703865,2216,860,16504,-503,-224,-35
2601705596,3432,2252,16492,-322,-174,-569
2601707323,3612,2540,15576,-376,-206,-279
2601709037,3264,2796,16208,-244,-48,-341
2601710894,3916,1660,15956,-495,180,77
2601712647,3768,716,14980,-256,-83,-426
2601714337,3496,2328,15888,-192,66,-326
2601716035,3988,2352,15360,-277,165,77
2601717711,2808,512,16648,-326,61,171
2601719383,2648,-508,16272,-242,-11,42
2601721111,2628,612,16964,-34,-182,-195
2601722835,2408,1732,16652,-82,-125,-47
2601724557,2560,1464,17028,-235,-85,151
2601726269,2096,884,17572,-333,-358,112
2601727979,2936,64,16720,-141,-178,-72
2601729708,3476,1632,16040,-150,-366,-83
2601731420,2600,172,16720,-221,-96,-11
2601733094,2884,-192,16724,-223,-167,-107
2601734770,2780,-16,16460,-32,-173,-332
2601736439,3264,1948,15884,-12,-410,-350
2601738104,3760,2680,13628,-205,-418,-149
2601739763,5784,-308,15184,151,751,-353
2601741475,4888,3344,18520,-157,31,-404
2601743171,3928,2176,14120,-386,178,81
2601744887,2224,1592,16436,320,1457,-921
2601746598,812,4752,20268,-455,318,158
2601748308,1176,1044,16068,-457,49,188
2601750016,2000,3520,18196,-97,619,-575
2601751750,-44,580,17260,-437,-89,137
2601753465,-436,1320,17980,-323,-593,-473
2601755205,88,612,17132,-394,-711,-480
2601756936,4544,2652,16524,-141,-259,-653
2601758733,4960,1140,16560,-431,-349,77
2601760503,6428,1892,15924,-363,-181,-486
2601762312,6740,2120,14404,-368,107,-179
2601764029,5112,1160,15440,-54,329,-160
2601765708,3004,1936,14764,-354,356,180
2601767377,2280,872,15184,-283,522,95
2601769050,2812,1572,13840,-19,121,125
2601770719,3584,840,15732,-5,-107,188
2601772431,4380,-140,16260,-77,350,166
2601774135,4000,-328,17000,0,183,46
2601775860,2784,1128,17352,197,-15,-202
2601777581,2524,1924,17076,-4,198,-227
2601779323,2512,2544,17404,-121,331,-253
2601781053,2924,2372,17564,-305,197,-185
2601782796,6420,1732,15128,-209,480,-329
2601784509,1804,640,15456,-492,-197,31
2601786218,1832,-84,14136,-290,238,-327
2601787926,1592,2604,16348,-490,-82,-333
2601789633,2396,1120,14384,-141,132,-415
2601791341,4184,2972,16252,-74,313,-570
2601793073,4972,660,14472,-473,-110,94
2601794782,3704,2824,18584,-291,264,-355
2601796489,2816,1540,15500,-114,430,-106
2601798199,1964,2884,18216,-123,88,-295
2601799906,1408,1580,16148,-471,365,479
2601801612,1476,1384,17232,-125,-24,-305
2601803342,2304,2024,16152,-202,-167,56
2601805106,1804,644,16792,-43,-95,-103
2601806856,3908,1100,15560,-277,206,338
2601808584,2384,288,17080,-143,-264,-234
2601810312,4004,2044,15048,-138,-82,-214
2601812107,2124,2516,16968,-330,-186,-9
2601813989,4448,1872,14672,-301,669,99
2601815693,4480,772,16932,-508,244,6
2601817349,2664,520,15356,-561,358,81
2601819005,2916,-264,16168,-46,728,-495
2601820651,2696,1096,17708,-397,339,-65
2601822325,1572,-168,17480,-552,170,-9
2601824121,3288,196,15508,-15,417,-653
2601825832,3256,1244,17236,-223,91,-289
2601827539,2100,1260,16768,-190,70,-444
2601829239,1748,1528,17468,-233,-14,-371
2601830942,2356,-88,15780,-113,-132,-423
2601832644,2656,2328,16724,-196,-236,-538
2601834408,3688,1668,16592,-107,233,-516
2601836102,4860,2488,17564,-120,-32,-562
2601837788,5372,1360,14680,-237,147,-203
2601839458,4084,2364,15140,-155,305,-331
2601841127,4240,1748,14136,-147,671,-73
2601842796,2776,1444,16332,-78,345,-370
2601844515,3616,2176,15308,-72,527,-19
2601846225,2600,1664,17016,-29,369,-56
2601847942,3704,2028,16124,-83,417,132
2601849660,1824,1792,16940,-142,-21,-113
2601851378,2048,2144,17132,-54,118,40
2601853087,1656,2412,18152,-20,-115,-23
2601854832,3940,2588,15468,-403,-77,287
2601856575,3492,788,17348,-321,-8,-16
2601859420,3192,348,17348,-290,-112,358
2601861196,3384,-1200,14460,-203,128,230
2601862902,1828,624,17380,-37,219,-261
2601864598,1924,500,15236,111,127,-3
2601866285,3028,1492,15844,204,234,-176
2601867965,3544,1832,15960,-111,20,380
2601869671,2916,296,17492,112,80,98
2601871351,3264,464,15568,196,235,152
2601873029,1772,196,17612,182,83,120
2601874707,1828,828,17480,225,179,-60
2601876421,2544,1200,16320,101,-25,-85
2601878140,3124,1820,16460,128,128,-204
2601879847,2892,2380,17868,-11,351,52
2601881555,1780,1648,16444,-58,-113,113
2601883261,716,1000,17564,-123,-47,87
2601884978,1620,240,15076,-53,-35,-200
2601886698,2080,1656,16692,-56,-141,-87
2601888413,2204,476,16664,-77,-311,-144
2601890121,3440,1124,15696,-46,-162,-413
2601891827,3304,1924,16240,-7,43,-201
2601893534,2600,2564,16652,62,93,-233
2601895249,2516,2936,16228,-63,70,-100
2601896964,920,2128,17376,-109,1,-95
2601898672,2056,2552,17260,49,-58,-68
2601900424,2528,1644,15844,14,-127,193
2601902280,2348,984,16848,-63,-212,123
2601904136,2564,340,16488,18,-146,83
2601905881,3364,1740,16068,143,-383,-132
2601907603,3576,1648,16240,-61,-137,348
2601909294,3420,1136,16524,-77,-41,260
2601910978,3380,1064,15532,-277,-136,143
2601912714,2968,-248,17252,14,77,-260
2601914462,3464,536,16504,-125,0,75
2601916187,2744,-1152,16376,-175,-164,19
2601917887,3148,-136,16552,71,-38,-612
2601919559,3852,636,15416,59,69,-297
2601921218,3496,772,15892,141,-6,-390
2601922901,4536,1260,16000,63,225,-325
2601924589,3860,640,15132,-3,17,-362
2601926257,2836,1112,16120,162,241,-528
2601927975,3764,3104,15892,190,235,-409
2601929686,2516,2412,17880,-24,-26,-110
2601931374,2704,1132,16312,133,40,-253
2601933069,3372,1648,16724,268,-23,-392
2601934760,3768,3464,16568,211,-135,-110
2601936445,3680,1464,16088,49,173,315
2601938169,3336,392,16248,121,80,63
2601939895,3336,812,16240,202,43,-98
2601941595,4380,1296,14912,317,211,-78
2601943276,3760,1936,16416,272,262,-5
2601944961,3208,1148,16576,144,88,148
2601946643,3836,1636,15612,169,-12,-55
2601948321,4148,2828,14972,255,129,-105
2601950023,4424,4028,16040,137,296,24
2601951731,2936,1180,16332,-194,-147,404
2601953439,3500,44,16084,141,437,-116
2601955198,3176,544,17596,233,242,-69
2601956986,3344,380,16404,246,271,92
2601958829,1952,584,17244,81,175,118
2601960529,2068,832,16672,323,204,-181
2601962216,3052,2216,16988,378,60,-279
2601963896,3728,2516,16888,30,326,348
2601965578,1440,-524,16180,110,94,186
2601967258,1204,-900,16532,270,216,-28
2601968992,1424,-188,16364,294,-303,-405
2601970736,2576,2036,16220,176,111,-204
2601972446,3136,1564,16776,192,-8,-147
2601974153,4024,1320,15948,121,7,-233
2601975858,2888,1360,16412,124,69,-256
2601977565,1748,2016,16576,212,142,-123
2601979297,2104,1708,15976,114,205,-217
2601981005,1832,1712,16448,98,179,-169
2601982714,2932,2128,17540,329,394,-208
2601984420,2500,3352,16304,60,-372,181
2601986197,2156,2804,14888,76,-3,225
2601988054,888,2924,17812,186,92,74
2601989819,2012,2576,18008,89,-185,337
2601991534,2812,1872,15564,-51,-271,405
2601993278,3924,1792,17048,173,27,103
2601995038,3932,1784,17000,37,-75,375
2601996766,2864,-688,16204,-27,0,166
2601998463,3204,1576,15792,-80,-62,-134
2602000231,2824,760,15324,-34,92,36
2602001920,3048,1380,15836,38,-61,-271
2602003618,2772,108,16888,-262,-97,-15
2602005359,3812,732,15556,38,-10,-549
2602007085,4168,1600,15128,36,-5,-415
