Time_us,Accel_X,Accel_Y,Accel_Z,Gyro_X,Gyro_Y,Gyro_Z
821454255,700,532,15428,95,-117,-149
821456161,-256,480,16152,206,97,-146
821457902,-632,744,16556,257,108,-100
821459607,-576,724,15664,133,487,13
821461374,-180,492,16456,140,240,57
821463262,280,-128,16436,182,217,50
821465060,816,-340,16120,216,331,33
821466861,592,388,16680,216,307,138
821468594,572,-136,18428,89,85,172
821470280,1596,-452,17068,76,96,72
821471957,1836,-136,17196,180,110,-20
821473630,1704,-260,16512,193,-74,130
821475341,980,-68,16508,67,-173,131
821477120,80,-144,18084,-4,-65,46
821478913,848,140,17028,199,-153,79
821480617,1148,100,15348,218,-94,58
821482326,408,-124,15892,168,-64,2
821484065,632,-184,15700,74,-30,30
821485778,-180,-308,17016,342,-75,-43
821487487,8,-8,15988,280,148,-9
821489180,32,-156,15188,127,263,-21
821490868,-52,-24,16440,61,314,-72
821492559,988,64,17608,297,197,-82
821494254,1620,228,17612,343,148,-75
821496028,1308,136,16872,191,209,-35
821497739,1656,80,16024,63,-4,-87
821499441,1272,596,18544,178,-224,-105
821501141,2724,484,15784,212,58,-57
821502844,1608,580,16664,96,-51,20
821504554,1148,64,17324,53,-368,-71
821506303,580,544,16396,200,-137,-114
821508047,760,556,16112,138,-98,-24
821509777,-952,-220,16144,80,24,-27
821511501,44,-60,15568,24,78,-73
821513218,344,352,16588,40,188,4
821514933,1452,-12,15648,177,348,0
821516638,1020,92,15584,59,199,-54
821518337,1020,-280,17204,-10,219,-138
821520089,1684,-252,16192,108,362,-164
821521831,1912,-8,16504,216,167,-135
821523581,896,148,17296,50,171,-152
821525293,1276,-316,17768,48,143,-166
821527045,1768,-524,17344,157,72,-196
821528776,2260,-608,16540,198,39,-243
821530478,1180,84,16116,22,104,-254
821532156,792,-64,17068,-28,70,-263
821533827,996,36,16608,9,54,-292
821535507,1804,16,15244,155,29,-301
821537265,516,424,15448,151,137,-278
821538965,624,400,15336,97,267,-292
821540665,556,160,16360,138,71,-304
821542360,508,32,16756,282,262,-218
821544077,1452,-108,14948,267,330,-221
821545781,240,424,16564,46,311,-233
821547550,932,352,17568,56,341,-189
821549269,1852,188,15920,365,287,-245
821550989,1420,524,17116,309,316,-182
821552700,1224,-292,15980,88,264,-102
821554408,1696,-324,16468,112,159,-225
821556143,1036,148,17664,176,144,-176
821557945,1728,180,16348,128,181,-109
821559652,400,448,17132,64,120,-70
821561370,632,-12,17280,83,144,27
821563091,804,-100,16692,101,-28,19
821564827,616,-8,16952,150,89,1
821566635,572,92,16012,50,335,1
821568509,1088,4,15828,53,158,28
821570214,1100,116,16908,161,62,-28
821571884,1552,-164,15076,119,301,-5
821573552,444,0,16548,59,231,-15
821575215,448,-44,17132,92,214,-132
821576881,1068,116,17028,103,145,-122
821578592,1220,516,18244,136,143,-62
821580412,964,-100,17384,128,147,-100
821582261,1984,-360,16592,43,15,-180
821584139,1776,-48,15920,61,-18,-179
821585903,1192,236,16028,57,199,-96
821587634,480,392,16540,-45,-37,-24
821589563,896,724,16364,-119,-128,-39
821591356,1040,680,16496,-10,74,-51
821593066,236,260,15708,-3,-38,-17
821594756,-604,268,15928,-27,-18,-47
821596429,28,392,15316,-106,259,-46
821598116,960,232,15924,-66,142,-15
821599855,648,624,16604,-60,149,-24
821601546,968,148,16216,-100,171,-82
821603243,1052,-28,16588,-55,102,-128
821604941,936,-132,16588,-60,112,-164
821606634,1628,-132,16872,-90,42,-181
821608366,1192,-352,16832,-153,32,-221
821610109,1224,32,17144,-183,-94,-285
821611847,1452,188,17156,-215,-243,-281
821613570,1232,480,17664,-246,-243,-213
821615328,428,252,17176,-182,-216,-224
821617066,984,308,15676,-267,-285,-253
821618769,4,328,16308,-303,-231,-295
821620469,452,324,16000,-209,38,-220
821622144,-64,184,15808,-56,-110,-256
821623802,168,124,15904,-50,-176,-297
821625461,1080,-392,15928,-257,101,-255
821627713,1272,296,16620,-116,100,-358
821629421,1236,-260,16416,-119,43,-347
821631146,1232,-524,16228,-219,295,-402
821632814,1048,-244,17116,-186,155,-443
821634487,1588,300,16976,-211,36,-468
821636156,2280,-80,17388,-167,32,-442
821637823,1892,-52,17024,-131,-40,-436
821639484,1604,-196,17532,-118,-119,-495
821641195,852,596,16296,-266,-103,-448
821642890,312,224,17116,-265,-29,-341
821644600,604,-148,15276,-91,9,-330
821646309,644,112,15392,-177,-57,-343
821648047,80,1056,16436,-280,41,-177
821649758,500,628,16184,-189,141,-85
821651466,424,428,16540,-29,-43,-43
821653194,584,-12,16088,-97,101,-124
821654922,924,136,16312,-220,287,-30
821656639,512,568,18160,-157,223,24
821658346,1624,136,16476,-49,15,39
821660081,2376,-296,16276,-116,11,37
821661818,2000,-36,16592,-148,49,20
821663542,912,-452,15924,-152,212,9
821665248,764,-100,17076,-89,35,42
821666945,1004,-792,16664,-29,165,-40
821668682,852,-172,16172,-85,146,-81
821670444,448,720,17212,-188,131,-44
821672156,1604,-304,16764,-145,134,-6
821673826,1252,-204,16500,-91,31,-25
821675483,788,184,16424,-142,156,-183
821677139,504,500,17308,-306,131,-68
821678793,704,516,16664,-238,171,-35
821680447,1836,-136,16264,-46,192,-55
821682152,1828,220,16208,-66,13,-72
821683852,772,844,16844,-147,38,-65
821685569,816,320,16632,-142,38,-67
821687278,784,-460,16568,-89,74,-43
821688988,832,264,17364,-93,15,-262
821690695,1228,420,15864,-195,155,-213
821692427,928,456,17444,-232,68,-117
821694137,1216,-592,17016,-44,-66,-173
821695845,1512,-424,14608,-165,180,-257
821697555,156,264,15992,-257,220,-208
821699263,424,416,17116,-308,61,-92
821700969,1104,-156,16224,-163,41,-124
821702700,1148,-120,15896,-122,201,-210
821704410,128,596,15716,-266,194,-45
821706117,-572,620,17092,-288,-96,-30
821707823,356,112,16752,-182,242,17
821709540,532,-24,16620,-114,262,8
821711269,-132,312,16920,-194,79,-75
821712994,604,68,16948,-255,97,-96
821714692,1744,-80,16824,-192,225,-86
821716400,2280,-988,16308,-97,22,-193
821718137,904,-424,16872,-181,-43,-339
821719844,508,76,17252,-222,18,-312
821721530,1476,-420,16468,-177,37,-340
821723217,1464,-532,17280,-100,-115,-445
821724880,372,72,16336,-203,105,-522
821726540,-4,404,16872,-249,101,-487
821728214,688,772,15928,-229,31,-369
821729891,1160,444,16112,-199,8,-291
821731554,316,936,16400,-227,90,-283
821733271,96,964,16408,-209,123,-203
821734946,628,1160,15964,-266,70,-117
821736627,708,464,16144,-228,120,-98
821738308,740,376,16708,-93,242,-89
821739987,512,-88,16804,-102,142,-35
821741699,1540,-508,16128,-270,81,-45
821743435,2060,-664,16196,-278,205,-107
821745134,1992,-324,17376,-186,135,-104
821746842,1408,-652,17868,-150,-15,-36
821748555,1732,-124,16256,-160,-98,-95
821750265,1380,-564,16420,-223,216,-164
821751971,1028,-200,16296,-221,248,-139
821753779,404,-284,16064,-118,154,-113
821755481,140,400,16380,-155,189,-64
821757175,952,296,16548,-163,313,38
821758900,992,156,16776,-140,151,117
821760616,308,164,16708,-65,342,93
821762342,448,300,15896,-61,386,78
821764166,476,388,17596,-134,284,84
821765900,1200,804,16952,-126,399,117
821767605,2056,488,16644,52,386,108
821769320,1580,524,17380,39,89,116
821771079,1904,380,16932,-138,190,50
821772806,1864,156,17948,-69,278,10
821774504,1576,-232,18212,59,221,51
821776197,1656,-336,15044,41,-4,57
821777871,1236,-352,15956,-164,37,-15
821779541,1512,-236,15088,-226,245,-6
821781208,188,-432,15724,-166,132,47
821782872,-128,348,16272,-190,174,18
821784536,260,820,15936,-240,299,68
821786254,504,476,16384,-137,259,119
821787958,108,-8,17048,-103,311,39
821789707,456,124,15448,-163,344,-13
821791418,-84,372,16780,-173,346,-4
821793129,768,424,16684,-145,419,74
821794868,728,52,17268,-152,337,38
821796632,1384,-172,17016,-111,181,-5
821799237,1380,-528,17400,-46,28,-107
821800963,380,-264,18212,-72,39,-97
821802677,1020,-396,16312,-59,-25,-151
821804388,928,-584,16860,-54,-37,-183
821806098,1452,-124,16532,-82,-93,-300
821807887,656,-24,16368,-113,-114,-241
821809598,260,-60,16012,-70,-94,-272
821811349,292,-136,15476,-69,24,-362
821813092,308,520,15632,-52,-45,-364
821814806,-520,584,16492,-35,199,-264
821816563,168,152,16568,-9,82,-262
821818331,908,152,16844,-14,40,-242
821820083,964,760,16468,20,98,-276
821821738,1092,444,17016,24,133,-141
821823391,1048,348,17480,-32,-139,-128
821825042,1376,-380,17404,-30,-109,-204
821826692,2064,-32,16060,-5,36,-213
821828394,916,228,16988,-10,-85,-160
821830092,860,172,16460,-155,-123,-72
821831802,1396,-40,16068,-131,-39,-81
821833512,1296,8,16264,25,18,-120
821835219,796,412,16220,-46,16,-69
821836927,40,636,17116,-105,-62,20
821838660,784,-224,17172,53,95,57
821840410,1796,-584,15868,90,75,-48
821842294,1184,160,16612,57,2,-62
821844159,1052,-108,17216,98,128,-27
821845923,2732,160,15860,119,256,134
821847635,2364,-260,15988,204,91,-121
821849461,1164,92,16716,93,215,-62
821851159,1548,32,16180,71,226,35
821852829,1524,-552,17196,132,68,10
821854503,1420,-144,16976,183,161,-91
821856179,704,576,17692,135,90,-1
821857846,640,428,17380,117,65,120
821859566,1524,212,16164,126,38,69
821861353,1676,628,15952,199,110,55
821863146,1064,820,16440,238,165,140
821864908,724,928,15608,134,69,264
821866641,896,-20,16556,117,-6,224
821868360,784,408,16228,257,134,240
821870092,1180,388,16072,223,80,327
821871833,232,-256,16960,68,90,279
821873528,564,-408,16260,41,183,173
821875190,368,-336,17568,105,100,164
821876851,784,-108,16888,151,237,99
821878505,924,-60,16364,17,166,53
821880203,8,-352,17544,-21,91,19
821882015,592,-760,15820,161,297,-94
821883831,188,-596,16232,163,276,-110
821885592,-1020,132,17008,-29,204,-71
821887314,252,108,17164,66,207,-71
821889020,124,632,18488,175,-27,-18
821890817,992,788,18108,198,39,101
821892521,1112,676,15960,96,16,124
821894203,184,232,17608,45,-165,114
821895885,476,352,18228,196,-238,41
821897572,1184,144,15240,190,-9,100
821899259,584,48,16632,84,-147,36
821901006,888,-352,16396,76,-266,25
821902711,652,-304,16728,196,-206,-20
821904423,564,-280,17120,213,-71,-105
821906132,1232,-296,15332,129,-85,-133
821907840,636,-288,17160,34,-105,-275
821909548,1240,-104,16212,252,120,-309
821911319,1968,368,15588,247,-115,-349
821913077,1592,1528,15884,-31,-38,-93
821914809,1312,1064,15852,-48,-113,-163
821916542,536,1564,16968,113,-95,-22
821918312,-152,1512,16804,70,47,139
821920093,-256,904,16248,-29,-10,166
821921888,-480,680,16596,-2,200,94
821923566,216,852,17320,191,266,227
821925232,1440,56,15776,131,133,283
821926897,1024,-180,16560,52,220,231
821928561,1864,-548,16676,39,265,194
821930225,2356,-552,16324,143,34,150
821931939,2604,-616,16488,157,152,115
821933636,3092,-284,15392,72,292,49
821935347,2072,-236,17656,91,-20,2
821937056,2236,-108,16028,155,-67,19
821938764,1572,-856,17004,253,169,-5
821940481,656,-224,15892,185,255,-104
821942230,560,140,15512,24,210,-121
821943941,220,344,17088,60,254,-44
821945653,1552,4,16264,256,419,26
821947374,1720,324,15912,187,170,-69
821949095,916,352,16772,97,235,-61
821950804,1156,440,16276,129,255,20
821952587,1196,-196,16776,305,323,44
821954287,1884,-28,16812,265,205,-114
821955985,1672,276,16644,98,199,-106
821957716,756,-148,17056,177,416,-9
821959414,2028,-288,15880,293,88,20
821961112,1088,-276,16984,111,147,-26
821962843,1532,44,16164,99,399,-43
821964570,1204,116,16452,196,171,-31
821966278,464,-336,17484,184,138,-137
821967975,1500,-252,15856,159,187,-160
821969697,1204,184,16760,174,205,-187
821972197,-164,116,16524,71,81,-101
821973985,-24,108,17332,73,367,-85
821975716,408,160,16836,165,240,-131
821977395,-292,636,16936,201,206,-38
821979062,-116,-28,16636,139,311,39
821980724,-128,164,17368,161,280,21
821982388,400,72,16568,206,161,50
821984083,-64,404,16400,85,204,115
821985787,-428,480,17252,32,220,113
821987516,576,280,16984,124,198,156
821989231,1476,-232,17024,186,-65,47
821990938,1636,-136,16336,182,13,19
821992632,1264,-592,15624,135,103,-9
821994401,412,-392,16592,102,71,-125
821996111,1020,-36,16100,147,-66,-180
821997824,596,584,16576,154,22,-214
821999532,344,776,17504,77,-34,-160
822001240,-576,-24,16644,26,-83,-174
822002950,-376,320,16976,101,118,-209
822004684,-360,396,16568,105,111,-146
822006394,-428,364,15852,6,0,-100
822008102,8,516,16464,-40,158,-139
822009811,668,352,16860,-10,233,-107
822011542,1588,908,16196,36,-19,-30
822013264,1216,816,16696,-50,-55,5
822015022,1420,384,17496,-93,-45,4
822016783,1736,440,17488,-60,-213,5
822018516,1752,576,17656,-35,-185,-21
822020224,1528,80,16992,-98,-124,-14
822021935,1424,-92,16280,-72,-309,-10
822023622,1840,-72,15424,-75,-228,-33
822025321,1924,-648,15836,-165,-224,28
822027004,724,-980,16320,-154,-133,-49
822028675,1308,-404,14800,-191,-52,-94
822030343,868,152,16160,-257,-143,-81
822032028,1512,-12,17344,-164,78,-61
822033693,2052,196,16872,-46,1,-101
822035365,1024,328,16772,-36,-30,-163
822037079,248,352,15212,-56,193,-179
822038779,108,296,16356,-5,410,-214
822040502,372,-184,17368,102,409,-254
822042221,680,132,16016,-53,80,-297
822043933,604,1012,18372,-39,368,-288
822045655,2300,148,17224,51,394,-222
822047385,2708,-440,16784,66,-43,-288
822049094,1812,-344,17308,-80,18,-324
822050795,2004,-228,16716,-92,59,-296
822052491,1648,-396,16720,-98,-29,-230
822054183,1024,-140,16000,-114,31,-300
822055893,288,124,16312,-183,-57,-307
822057670,-120,1492,16408,-267,96,-97
822059383,400,164,15608,-163,112,66
822061123,316,844,16136,-170,13,70
822062856,-252,888,16524,-218,234,159
822064568,-100,996,16088,-197,232,220
822066277,776,680,16724,-82,119,269
822068096,1528,116,16200,-75,215,239
822069775,1640,-208,15804,-106,241,241
822071437,608,100,18004,-149,109,223
822073104,2408,-100,16288,-233,208,230
822074829,3148,-576,17272,-63,97,159
822076536,2248,-552,17868,-15,-27,124
822078228,1452,-472,16456,-98,-165,31
822079896,1300,-692,16308,-156,-143,23
822081559,708,-860,15960,-91,-60,-31
822083225,588,-580,14440,-118,-44,-147
822084887,-632,228,16140,-204,108,-106
822086548,-428,532,16024,-216,119,-94
822088274,140,400,17288,-38,59,-73
822090044,984,392,16072,-51,96,-96
822091858,68,488,15440,-143,327,-190
822093659,828,1244,15924,-201,114,30
822095424,628,924,18136,-187,154,86
822097194,2168,216,16392,-124,-72,8
822099002,1128,1072,17936,-156,-214,33
822100768,1256,484,16916,-226,-266,132
822102480,1088,72,17616,-197,-317,87
822104173,24,508,17152,-122,-90,13
822105849,-248,52,14240,-226,36,27
822107572,-1644,256,16740,-321,-50,91
822109327,-304,-480,16404,-292,150,151
822111060,824,-744,14416,-192,182,72
822112764,-288,260,16432,-342,135,49
822114546,200,292,16664,-365,186,105
822116363,1360,4,16704,-263,148,59
822118089,1552,-32,17276,-138,148,-32
822119815,1220,-152,17300,-168,111,-201
822121515,1584,-244,17744,-221,40,-185
822123176,2780,-696,16564,-160,97,-129
822124844,2820,-1212,15636,-142,-127,-360
822126503,1524,-392,17520,-258,-215,-428
822128160,1420,560,16424,-339,18,-394
822129864,2088,104,16120,-201,-242,-287
822131639,1320,-248,16724,-68,-273,-446
822133480,1224,612,15712,-117,-184,-488
822135276,60,892,17544,-180,-26,-450
822137039,492,268,16340,-63,19,-348
822138765,1732,-216,14348,-63,193,-457
822140570,596,644,15524,-300,294,-415
822142271,272,1152,16448,-342,318,-319
822144657,1668,-296,16908,-124,189,-188
822146371,2552,-356,15820,-107,192,-242
822148101,856,420,16776,-299,311,-290
822149788,1532,488,16860,-309,271,-113
822151500,1356,-60,17972,-250,233,-64
822153184,2256,-36,17068,-119,233,-149
822154880,2060,896,15796,-323,192,-140
822156572,2688,316,16692,-196,20,-47
822158265,2536,-128,16492,-102,156,-17
822159954,1956,-728,15568,-46,22,-87
822161724,124,236,16304,-173,143,-124
822163461,352,140,15996,-232,279,-44
822165195,544,-328,16292,-112,268,117
822166910,884,0,16396,-6,181,-7
822168624,588,628,15752,-133,488,52
822170337,12,684,17736,-116,436,119
822172078,1100,280,16652,-5,439,180
822173751,1784,-132,16516,100,272,105
822175426,896,140,16708,53,335,142
822177163,1256,228,16664,-10,357,198
822178856,1300,148,16200,-126,50,303
822180513,976,-236,17664,-143,176,222
822182226,792,180,16724,-130,179,186
822183894,-12,972,18088,-158,32,322
822185568,324,64,16804,-132,-32,385
822187242,596,-588,16340,-117,49,326
822188914,-228,56,16356,-122,208,164
822190585,-364,532,15476,-264,140,246
822192306,-232,328,16420,-258,250,257
822194001,480,28,16088,-128,319,193
822195715,80,336,16056,-155,219,139
822197424,-288,92,17076,-122,166,61
822199131,264,244,16980,-161,238,135
822200841,-24,-612,17080,-38,223,99
822202575,488,-116,16732,-160,160,-23
822204287,500,-284,16872,-250,123,-36
822205996,704,84,17624,-209,246,-25
822207703,1468,-208,16512,-140,-70,-13
822209409,1420,-68,16736,-245,-247,-198
822211119,1664,668,16304,-310,-17,-149
822212927,1020,312,17376,-164,-58,-47
822214682,824,-300,16784,-88,-279,-127
822216505,1072,256,15420,-191,-43,-222
822218358,796,388,16264,-153,38,-47
822220164,352,-236,16896,-76,-55,-63
822221972,752,-516,14992,-150,-54,-175
822223913,768,-76,15524,-230,251,-219
822225729,620,-588,16816,-191,210,-193
822227443,768,-52,15620,-260,248,-266
822229193,1420,120,15948,-286,378,-280
822230947,2132,-120,16544,-168,297,-294
822232715,2472,-28,16880,-236,134,-235
822234591,1496,380,17252,-198,137,-273
822236357,1404,220,17136,-170,176,-258
822238103,2100,160,17120,-195,78,-220
822239842,1204,528,17632,-219,69,-169
822241554,1192,544,17128,-144,89,-153
822243234,1780,752,16216,-133,24,-145
822244910,1860,376,16632,-122,69,-62
822246580,1380,-144,16008,-35,289,-69
822248251,1096,52,15428,-33,66,-88
822249912,788,240,15264,-82,262,-65
822251558,1880,-28,15524,-105,452,41
822253213,980,112,16688,-43,456,77
822254897,1032,0,16020,3,472,-26
822256569,1820,-112,15784,-93,343,115
822258231,1560,-408,16696,-41,485,121
822259931,1580,-56,16152,0,493,86
822261628,776,324,17296,-28,329,107
822263481,716,456,17892,-85,364,172
822265224,2024,-96,16952,70,360,208
822266941,1392,4,17376,62,175,160
822268612,1196,216,16764,-76,178,181
822270346,912,380,16620,-68,212,217
822272136,768,172,17684,48,186,219
822273898,1056,100,16384,32,26,304
822275666,512,-448,16028,-5,123,204
822277461,-488,-20,16972,88,40,207
822279384,-44,44,16228,104,94,315
822281211,-320,-152,15868,52,279,375
822282954,-548,-12,17120,37,213,364
822284702,-476,276,17132,-7,19,404
822286434,-296,344,17204,53,92,483
822288150,-588,188,17536,186,313,447
822289959,-504,-40,17124,178,189,428
822291699,-912,140,17256,92,41,403
822293408,1156,-468,16456,120,217,375
822295192,1112,-552,16964,115,160,239
822296933,872,-480,17228,87,8,198
822298729,1072,-148,16764,62,-53,149
822300435,1328,-520,17336,187,-126,32
822302254,1216,-572,17356,85,-210,-153
822303966,1028,-448,16508,35,-271,-230
822305687,328,4,16900,92,-49,-261
822307358,664,-504,16772,222,-252,-408
822309079,536,-128,16612,169,-353,-529
822310751,204,-168,16124,-29,2,-476
822312452,396,1036,16076,97,-86,-424
822314146,1100,860,16100,115,-224,-258
822315851,1148,1148,15996,49,-106,-197
822318523,440,1096,16564,1,-32,-214
822320385,1140,524,16864,55,-139,-75
822322167,1432,-72,17028,78,-98,-120
822323947,2292,-84,15576,104,52,-146
822325742,1452,360,16116,26,-81,-82
822327448,840,-160,17468,-53,-115,-50
822329146,1556,-44,16196,21,139,-116
822330938,1808,-92,16596,60,46,-165
822332646,1664,280,16320,46,115,-113
822334340,1908,20,16608,69,85,-62
822336045,2016,-316,16936,173,-57,-119
822337722,2432,-300,15976,154,29,-137
822339402,1720,200,15920,88,30,-55
822341110,1088,-252,16768,97,39,47
822342793,1820,-204,16004,80,25,73
822344489,2064,-196,16928,141,-89,-29
822346202,1496,-28,16908,187,65,106
822347873,1668,-36,16612,254,-55,97
822349552,1748,20,16968,151,-296,158
822351256,1964,-580,15888,189,-26,104
822352933,904,140,17236,262,-42,87
822354624,388,248,16772,146,-168,283
822356315,1932,-76,14200,247,386,-63
822357998,12,620,18392,462,600,-362
822359683,-424,1128,17620,432,205,-260
822361430,-152,-396,12760,154,122,-218
822363154,-2624,-1784,18116,234,1277,-344
822364870,-1044,-1796,18508,324,1116,-308
822366642,-288,-408,14840,162,156,-277
822368365,980,988,15904,-26,939,-106
822370047,2084,680,18792,131,678,81
822371757,1264,900,20376,210,99,117
822373434,2584,1796,15968,82,-124,167
822375121,1184,1256,17056,63,181,267
822376814,116,688,19104,122,107,269
822378498,1252,668,15436,147,-356,278
822380167,392,316,16416,68,17,213
822381880,-564,44,17716,247,-78,265
822383557,-740,76,16180,287,-216,262
822385226,-520,-1080,15860,167,56,165
822386914,296,-1084,16104,196,249,51
822388593,252,-784,14768,281,220,78
822390261,248,-284,16448,243,391,25
822391957,2484,-980,15520,70,487,-126
822393736,1360,-564,18600,69,364,-236
822395511,2388,644,17268,245,34,-114
822397294,1372,308,16388,121,-113,-13
822399029,916,588,19236,4,-347,-112
822400726,2720,396,15720,66,-175,-158
822402457,848,708,17940,129,-499,-74
822404169,820,404,17176,246,-355,-196
822405858,2128,-408,14768,-5,-437,40
822407564,1380,208,16236,33,-530,-13
822409271,1832,424,15264,83,-268,-69
822410957,780,736,14852,-8,-246,67
822412731,596,-52,13940,20,18,51
822414450,988,-860,16412,85,68,-133
822416153,576,184,17032,91,125,-70
822417853,1388,248,16560,72,80,-12
822419600,1464,20,16168,33,217,-1
822421380,1464,-256,16544,34,125,-208
822423189,712,456,16152,122,128,-54
822424965,340,-292,15232,137,411,13
822426716,856,-300,15760,143,580,-105
822428435,764,100,16364,99,488,-330
822430107,1748,344,15804,141,636,-228
822431740,1416,36,17708,207,489,-183
822433372,2216,-672,17284,228,376,-259
822435006,2488,-156,16532,139,482,-445
822436684,1772,168,17728,96,346,-446
822438375,1252,-20,17152,96,215,-451
822440062,2184,-604,16000,163,398,-572
822441743,2288,160,15872,117,256,-666
822443421,1480,420,16444,47,242,-664
822445108,1856,80,15708,20,204,-534
822446814,960,-496,16296,271,122,-674
822448526,2156,532,14584,152,252,-653
822450240,820,752,16608,-149,206,-450
822451951,772,1180,17088,3,280,-396
822453662,880,240,17076,37,242,-313
822455373,1400,896,16544,-42,171,-318
822457085,856,896,16696,-114,275,-298
822458792,1172,484,16492,38,353,-122
822460500,800,276,17808,95,189,-88
822462214,1456,-260,15384,45,189,-174
822463922,452,-156,15600,-53,390,-151
822465715,-100,-296,16800,2,203,-41
822467460,1052,-920,15480,3,281,-32
822469143,508,-320,17076,-26,245,-118
822470823,-228,296,17300,-107,381,-150
822472499,232,524,17652,-117,183,-131
822474172,548,488,18276,24,70,-27
822475912,1180,-544,17472,177,102,-134
822477618,988,328,15348,5,-66,-157
822479332,328,276,15588,-106,-5,-77
822481041,-4,228,16272,-106,20,-67
822482752,716,420,16348,-39,106,39
822484460,396,484,16904,-83,86,82
822486195,724,376,16036,-133,-180,66
822487905,212,228,16708,-96,-158,41
822490432,-412,208,16988,-62,-14,-25
822492151,-200,72,16740,-173,-81,-30
822493860,708,320,15316,-236,130,-132
822495569,1372,464,16928,-144,-101,-104
822497349,1364,732,16320,-134,-122,-102
822499049,308,136,16460,-179,-98,-184
822500744,768,320,16164,-162,76,-248
822502437,708,48,17444,-192,-119,-233
822504132,936,-24,16356,-240,-24,-314
822505824,460,116,17188,-258,-33,-328
822507576,1120,-76,16048,-283,-157,-305
822509281,1096,-668,16704,-271,-213,-405
822510989,1412,628,17028,-395,-187,-336
822512731,436,256,16876,-224,-164,-414
822514483,1388,316,15708,-303,-90,-452
822516211,676,104,17100,-325,-161,-494
822518016,1088,352,16540,-220,26,-485
822519823,1484,100,15924,-87,-70,-455
822521556,1400,248,15992,-223,-70,-442
822523253,1076,24,16240,-261,-11,-449
822524987,1052,160,16176,-211,51,-384
822526703,1076,-52,16960,-130,-193,-404
822528394,1756,136,15468,-178,-2,-432
822530070,2332,476,16320,-241,136,-417
822531735,1856,72,17280,-144,-11,-373
822533396,1852,-48,16852,-87,-65,-359
822535060,1816,-92,15828,-160,46,-371
822536723,1796,-540,16212,-234,27,-384
822538424,1812,-96,15612,-275,59,-388
822540152,1032,-32,17156,-214,89,-371
822541881,1308,292,16508,-144,126,-307
822543595,2044,-20,15460,-219,206,-294
822545306,1224,464,17224,-214,109,-295
822547019,1160,168,16780,-125,195,-260
822548806,1712,-40,14420,-95,322,-244
822550506,1004,116,16684,-207,122,-290
822552202,1164,392,15480,-269,257,-279
822553892,1104,168,16720,-117,318,-148
822555586,1604,92,16916,-82,131,-83
822557279,1468,-392,16220,-158,111,-128
822559033,644,332,16532,-194,220,-246
822560739,248,308,17844,-149,298,-108
822562500,1628,-104,16092,-126,128,-69
822564256,732,-300,17020,-123,145,-190
822566031,1452,284,16364,-126,210,-196
822567813,1152,264,17068,-180,-15,-27
822569638,364,396,16912,-131,52,-6
822571332,104,160,16924,-21,171,-146
822573011,192,96,16168,-97,157,-149
822574685,-136,88,16808,-170,156,-62
822576356,260,260,16576,-69,222,12
822578027,548,-76,16064,-38,201,-19
822579748,288,416,16504,-200,187,-36
822581448,248,624,16664,-262,166,61
822583162,280,428,17072,-147,219,117
822584872,484,164,16388,-13,115,109
822586583,96,184,16756,-207,52,48
822588343,368,192,16836,-299,72,98
822590211,1044,-68,16304,-208,24,137
822591920,896,20,17076,-159,-11,92
822593604,892,-92,16184,-289,40,51
822595287,576,264,16940,-219,-92,27
822596967,1552,-376,16324,-171,29,2
822598648,1708,-524,15228,-160,-115,-110
822600384,-460,-204,16592,-140,23,-260
822602088,0,-104,16296,-122,-75,-285
822603799,564,40,16624,-342,76,-101
822605508,1128,20,16508,-128,109,-300
822607217,868,256,16080,-180,193,-280
822608925,632,348,16984,-275,43,-280
822610657,1484,220,17160,-306,76,-256
822612387,1800,472,17516,-127,42,-317
822614149,1512,356,16700,-112,28,-340
822615895,1136,436,16988,-241,-226,-299
822617619,1604,232,17252,-289,79,-243
822619338,1932,708,16404,-103,-28,-271
822621132,908,196,16348,-117,-65,-224
822622872,912,516,14672,-246,8,-188
822624548,1264,-76,15404,-299,218,-211
822626248,868,588,16784,-234,91,-172
822627938,1300,368,15384,-199,253,-139
822629599,1116,312,16156,-210,232,-168
822631318,992,-136,17556,-192,388,-120
822632996,2184,-220,17036,-137,231,-137
822634679,860,-464,17896,3,280,-325
822636378,1432,36,15052,-173,526,-120
822638060,888,-600,16784,-191,434,-141
822639740,1856,224,17388,-225,296,-191
822641418,2368,-180,16144,-239,439,-104
822643155,1800,8,16632,-140,25,-126
822644867,2420,164,14808,-188,199,-136
822646587,1588,204,16308,-234,100,-124
822648299,68,200,18000,-146,232,20
822650010,628,116,16500,-86,189,15
822651717,-20,192,16572,-161,85,-14
822653451,412,628,16768,-122,328,-1
822655164,1144,-120,15984,-67,326,192
822656873,-20,-592,17164,-22,257,128
822658582,680,-632,14952,-124,389,-19
822660288,1088,112,15716,-174,462,15
822663186,1044,-456,16592,-82,274,-11
822665028,1636,268,17100,-196,257,-22
822666780,1548,28,16220,-188,299,-49
822668480,1172,296,17352,-211,210,-12
822670177,760,660,18288,-33,-6,-50
822671872,936,796,17228,-59,132,-8
822673565,1232,-60,16488,-5,68,-55
822675285,888,716,15920,-19,-40,-34
822677120,224,528,16048,-119,-6,109
822678982,4,-320,16628,-75,66,44
822680758,44,196,16676,-29,-26,-50
822682476,176,444,16356,-78,168,144
822684197,212,4,15484,1,163,72
822685917,544,-544,16220,-27,288,35
822687607,712,-532,15820,-101,247,-68
822689282,644,-460,15920,-97,446,-43
822690954,184,-476,17500,-73,222,-32
822692626,1084,-240,17640,-214,158,-82
822694333,1928,68,17060,-223,150,-228
822696124,1868,-136,17724,-10,122,-227
822697840,1496,-40,17540,-6,-55,-256
822699555,1440,-604,16512,-142,-73,-335
822701266,1392,288,16300,-153,-54,-403
822702977,252,792,18072,-64,-121,-277
822704687,880,476,16688,-54,-234,-218
822706426,732,112,17024,-48,-200,-281
822708158,228,492,16440,-46,20,-367
822709988,416,524,16572,-8,-92,-279
822711888,856,112,16168,-13,-61,-223
822713799,856,-108,16312,-1,23,-303
822715635,736,168,15580,-9,151,-288
822717503,720,100,16068,-43,-14,-171
822719330,176,-252,17200,-39,110,-150
822721158,760,-376,16156,-5,282,-222
822722983,424,248,16252,-80,245,-208
822724788,252,156,17196,-94,209,-149
822726492,1472,-132,16484,-27,311,-77
822728245,1588,376,17400,-61,88,-131
822729916,692,1152,17732,-57,31,-74
822731566,1500,792,16356,-15,154,7
822733215,1436,368,17748,127,-132,69
822734867,2032,-336,16316,167,-132,-74
822736513,1444,544,16208,-31,-77,10
822738198,-160,-12,17880,158,0,108
822739890,1084,-568,15968,178,-82,158
822741602,1104,-700,16104,118,-47,116
822743313,760,-728,16568,38,265,18
822745029,1116,-548,15348,148,113,52
822746743,804,-952,16800,181,131,9
822748516,1688,-1068,15684,129,327,-38
822750219,1404,-464,16280,86,181,-119
822751914,1068,-28,17848,127,73,-139
822753606,2048,-32,16400,152,130,-125
822755340,1552,8,17384,172,93,-194
822757050,968,176,17228,86,69,-253
822758771,928,740,17064,115,-59,-245
822760492,648,648,17912,203,-48,-119
822762183,1104,80,15612,201,1,-12
822763874,628,472,15712,76,-89,-91
822765804,-152,1060,17248,39,-87,47
822767589,284,300,15356,110,120,133
822769295,-120,296,15484,179,205,77
822771065,-380,8,17040,106,147,56
822772733,148,392,16112,97,241,85
822774389,1020,176,16752,259,393,106
822776047,1684,-484,16748,256,110,78
822777698,1568,8,16752,169,81,105
822779347,1256,-148,16792,127,331,39
822781044,1732,-80,17556,210,76,61
822782742,2428,-164,16168,137,10,21
822784476,1988,-144,17184,104,101,-23
822786210,1132,344,16396,180,-34,-32
822787929,948,-40,16192,210,-172,25
822789728,460,-196,16568,101,4,-34
822791554,736,88,15640,70,111,-32
822793307,212,376,16292,123,-9,-105
822795006,1264,-144,16248,200,33,-18
822796709,976,12,15928,176,117,-52
822798402,884,-80,15904,122,113,-93
822800155,644,176,16156,70,24,-109
822801966,1532,-4,16056,181,177,-70
822803705,1700,104,16272,174,122,-119
822805410,1404,4,16436,71,198,-157
822807110,1404,384,16356,22,127,-249
822808804,1032,76,17236,137,39,-198
822810492,1572,84,15980,143,83,-193
822812266,1184,396,16712,62,-38,-276
822813973,388,276,17044,8,147,-271
822815678,1160,368,16116,138,134,-191
822817399,888,156,16752,141,13,-177
822819114,1136,156,15408,12,205,-202
822820816,484,564,15496,31,256,-158
822822523,28,520,16548,65,218,-90
822824292,936,296,15936,93,206,-12
822826018,828,312,16376,10,278,-87
822827694,304,216,17548,34,234,-122
822829372,992,584,16740,87,162,-80
822831044,1080,-276,18308,255,124,-94
822832696,2236,-136,15968,187,248,-130
822834463,1520,-488,17284,120,152,-126
822836794,696,-300,17144,148,23,-177
822838491,1924,-260,15752,137,238,-113
822840174,1540,-164,15972,169,68,-161
822841852,900,-344,16780,107,36,-239
822843535,896,612,16412,96,20,-173
822845231,-168,396,17744,187,112,-41
822846934,340,-88,16296,162,166,-109
822848679,648,364,15996,79,263,-131
822850383,20,336,16896,149,393,-102
822852077,1672,208,15276,231,267,44
822853770,1256,144,16608,190,101,-58
822855463,2156,44,15668,120,233,-57
822857169,920,640,16520,175,240,-38
822858932,752,476,17924,214,92,17
822860695,1400,-488,16640,174,214,-3
822862479,1344,132,15892,140,246,-65
822864308,540,296,17276,163,160,-65
822866109,1332,4,15724,117,85,7
822867808,604,172,16968,171,134,-91
822869467,900,420,16624,221,207,-88
822871127,856,620,16176,75,165,89
822872784,1192,372,16704,183,94,72
822874437,784,12,16324,193,149,107
822876103,1068,76,15908,167,95,60
822877798,424,284,16332,94,178,20
822879507,960,-64,16104,126,286,102
822881223,368,-48,17168,165,228,95
822882935,1308,-32,16744,72,129,-20
822884642,796,0,17184,72,94,-22
822886356,776,-4,16804,121,115,-17
822888090,856,-588,17172,151,166,-87
822889798,1372,-116,16536,-10,36,-182
822891511,992,52,16552,-63,181,-237
822893220,820,340,17092,-15,83,-190
822894927,1396,268,16772,4,-151,-185
822896731,1168,236,16124,-75,-10,-237
822898460,68,352,16852,-31,-26,-247
822900183,292,688,15956,-35,-78,-222
822901902,252,-12,16260,-56,37,-252
822903617,120,224,16720,-83,173,-267
822905326,360,472,16440,-112,58,-280
822907066,248,956,17460,-126,-73,-187
822908777,656,360,17236,-125,138,-204
822910487,1416,548,15660,-138,83,-257
822912199,448,540,17300,-170,16,-254
822913914,1348,524,16636,-140,-18,-251
822915629,1592,-204,16916,-46,-30,-271
822917430,960,36,17024,-78,-161,-370
822919112,1404,476,15676,-245,-87,-205
822920779,468,124,17316,-183,-168,-197
822922442,640,16,17480,-161,-95,-98
822924108,1364,56,16564,-247,-223,-122
822925810,92,536,17224,-355,-109,-121
822927588,932,716,16280,-189,85,-75
822929279,1080,580,17380,-120,-73,-24
822930955,1516,68,16556,-83,-45,-69
822932612,1196,-336,14860,-120,206,-145
822934263,256,-188,16808,-63,204,-178
822935914,1548,-512,15276,-126,221,-127
822937616,2316,-604,15844,-95,149,-234
822939294,1756,-552,16192,-94,378,-272
822940995,1848,-324,16272,-65,198,-336
822942699,1552,-24,17036,-129,3,-273
822944391,1772,-340,17596,-46,175,-337
822946089,1708,-28,16448,-69,152,-320
822947857,108,536,18672,-145,-75,-293
822949565,1528,680,16000,-195,78,-201
822951276,2180,732,15820,-55,27,-126
822952984,1268,612,16296,11,-2,-96
822954712,416,792,15952,-101,-140,-98
822956445,144,912,15960,-211,140,21
822958239,816,808,17496,-39,30,42
822959924,680,388,15844,-72,16,48
822961621,372,4,16020,-144,152,-2
822963323,400,-316,15640,-191,301,-33
822965053,600,-172,16676,-190,270,-51
822966860,624,-368,17368,-126,193,-101
822968611,-104,-360,18080,-100,152,-124
822970450,1240,-612,16848,-127,197,-246
822972191,2124,-120,16040,-214,79,-294
822973930,856,-100,17852,-203,17,-270
822975627,764,92,15760,-105,84,-304
822977283,800,140,16744,-260,-137,-350
822978926,808,752,16324,-299,-83,-324
822980611,900,816,16576,-211,15,-127
822982279,164,520,16624,-35,-288,-73
822983964,380,316,15364,-103,-154,-109
822985669,256,608,15188,-329,-94,-127
822987353,-580,464,17288,-155,55,10
822989031,-64,252,16632,-117,-97,11
822990761,548,180,16112,-224,-13,-51
822992487,1224,180,16804,-219,71,-158
822994212,1432,-424,17024,-164,88,-157
822995929,1168,-336,17152,-111,-53,-196
822997641,1196,-864,16880,-164,164,-286
822999351,2032,-300,15960,-255,125,-414
823001091,1072,-104,17516,-265,22,-442
823002799,1108,244,17544,-219,-15,-389
823004517,1504,168,15604,-230,69,-335
823006235,848,872,16264,-273,-140,-414
823009132,508,1192,16972,-249,-79,-141
823010884,1180,840,15904,-154,26,-94
823012589,1336,280,15480,-159,-87,-188
823014313,504,936,16224,-289,-9,-130
823016098,-132,-16,17336,-136,58,45
823017824,1080,-316,15800,-61,7,28
823019523,1096,-1252,16632,-166,1,-124
823021294,1692,-696,15628,-343,402,-224
823022967,1040,-768,18004,-307,256,-231
823024633,2084,-592,16180,-246,247,-242
823026306,2992,-916,15708,-211,242,-412
823027983,2052,-212,16856,-238,258,-468
823029731,2080,144,16468,-225,272,-510
823031483,2108,200,16104,-183,35,-482
823033148,1144,-396,16828,-137,215,-546
823034813,1208,388,15460,-138,356,-535
823036477,52,932,17052,-240,127,-398
823038141,248,1076,17208,-161,207,-212
823039802,1508,440,16440,-17,167,-164
823041511,1060,1048,17220,-106,82,-41
823043206,264,528,17004,-177,175,-50
823044920,196,924,16932,-179,13,1
823046630,740,-328,17348,-117,301,125
823048349,2012,-356,15224,-168,296,30
823050071,1172,-332,16044,-257,284,-30
823052068,1144,-44,17344,-183,235,26
823053954,1880,-1212,16628,-115,259,-83
823055732,1200,-340,16916,-184,213,-186
823057444,212,-256,17788,-170,356,-311
823059145,876,-176,15412,-173,380,-237
823060873,156,-176,17624,-151,244,-232
823062607,884,140,16420,-122,362,-286
823064308,352,104,16136,-211,134,-248
823065983,-4,1048,17752,-311,144,-147
823067807,888,652,17236,-256,206,-120
823069527,420,584,17184,-22,46,-118
823071200,532,720,16760,-105,-1,-141
823072876,824,792,16616,-243,8,-69
823074551,520,252,16496,-122,13,-113
823076222,40,40,16028,-66,68,-10
823077894,-264,-4,15648,-134,162,-2
823079566,-108,-136,16004,-283,162,-32
823081235,260,80,16688,-129,207,42
823082907,536,-212,16448,-67,150,7
823084603,156,-396,16084,-139,152,-17
823086310,-212,-28,16416,-260,282,-94
823088061,656,300,16500,-195,242,-8
823089777,904,60,17536,-172,190,32
823091491,1096,224,16652,-186,263,-41
823093230,1096,440,17228,-175,-42,-12
823094941,924,44,17940,-179,-140,3
823096649,1828,-180,16668,-152,-68,-48
823098354,488,48,16660,-140,-67,-46
823100086,-412,220,17468,-116,-154,-35
823101794,1568,-20,15264,-138,-114,-58
823103523,1352,-76,17068,-130,-44,-54
823105236,1268,-452,15828,-97,138,-82
823106945,996,-312,15480,-171,-68,-183
823108651,1420,-88,16196,-186,112,-181
823110359,2400,-384,14776,-136,275,-207
823112097,1484,-100,16088,-7,41,-349
823113810,200,332,17900,-219,49,-183
823115591,2060,-392,14904,-163,225,-288
823117356,2144,48,17088,-43,171,-243
823119063,1080,328,16536,-160,204,-165
823120778,1200,348,15772,-244,261,-139
823122490,904,560,16908,-174,247,-120
823124198,1964,420,15764,-147,299,-82
823125878,1616,472,16120,-223,226,5
823127551,1272,356,17352,-191,349,2
823129223,2736,-156,15088,-92,232,-17
823130910,2184,-140,17136,-70,34,-54
823132591,2428,-276,15372,-120,296,-47
823134320,1260,-748,14884,-125,294,-80
823136179,96,-224,17264,-187,318,-128
823137990,956,-352,16436,-101,405,-157
823139723,1676,-460,15872,-56,469,-132
823141432,752,-136,16936,-16,499,-153
823143127,1512,-656,15516,-101,350,-204
823144815,1008,232,16772,-59,338,-152
823146572,316,428,18648,6,275,-45
823148435,772,492,17244,-12,172,-17
823150202,848,516,17816,94,40,-104
823151927,924,816,17000,28,66,130
823153628,988,332,16784,50,-9,173
823155416,116,500,17436,56,-78,122
823157110,284,-336,16928,43,12,180
823158797,612,-224,15892,125,107,141
823160482,368,-284,16496,128,113,92
823162169,412,-156,15688,-10,136,90
823163877,884,-560,16332,51,158,57
823165583,584,-632,16956,143,127,28
823167281,1252,12,16404,201,134,-10
823169064,952,-144,16624,124,144,-46
823170837,1240,-1016,16732,148,100,-130
823172542,976,-436,17052,171,-83,-159
823174239,584,448,17020,82,55,-139
823175965,148,712,16980,37,116,-40
823177688,1296,252,16840,48,-89,-26
823179381,336,180,17576,107,-289,-66
823181723,-288,516,16880,160,-105,12
823183419,248,484,16288,100,-95,31
823185112,468,-108,16132,142,-228,-142
823186872,800,184,16392,31,54,-14
823188571,824,228,16092,112,-53,-80
823190280,584,512,16944,50,-202,-35
823192051,1256,-216,17016,1,91,-62
823193782,1704,-208,15924,150,60,-161
823195495,496,-76,16684,180,-55,-182
823197285,780,184,15952,31,114,-153
823198979,1924,-240,16340,-11,96,-146
823200674,1456,-32,17044,100,-145,-203
823202365,1628,416,16100,103,-56,-182
823204071,800,816,17080,0,-103,-76
823205764,1312,92,17176,7,-75,-64
823207507,1564,-128,16280,41,-178,-166
823209205,604,684,17532,95,-99,-145
823210914,1096,404,15872,188,144,-27
823212623,2580,252,15128,51,-35,-4
823214374,1068,-428,16872,7,-5,-59
823216143,1780,-192,15172,185,200,-173
823217975,644,-184,16112,98,32,-86
823219663,924,-628,16336,-25,137,-98
823221328,1396,-692,15924,-5,175,-178
823222995,796,328,17720,140,222,-259
823224655,1084,588,16288,35,255,-141
823226315,976,208,17348,-11,90,-123
823228069,1516,-288,17788,65,258,-121
823229777,2108,400,15596,169,199,-205
823231471,876,1052,16628,50,50,-30
823233155,888,984,16616,-24,196,53
823234843,1344,128,16196,118,134,33
823236518,832,4,17404,313,27,-142
823238198,1476,964,16036,215,7,-27
823239903,916,-312,16812,56,130,193
823241615,1112,-496,16856,226,194,-49
823243325,988,-748,16600,201,72,-126
823245042,440,-52,16924,71,244,-23
823246752,732,-220,15696,115,434,4
823248468,1376,-484,16044,184,167,-129
823250186,1288,-344,16840,173,122,-167
823251898,1324,404,15620,138,379,-172
823253608,216,728,17528,137,215,-82
823255318,528,432,16608,153,165,-78
823257026,888,-28,16788,196,179,-188
823258737,272,808,17936,276,187,-72
823260450,556,1036,16336,197,130,-23
823262163,140,204,17208,39,38,81
823263872,-104,-188,17928,170,163,-18
823265588,1376,704,16076,240,126,-6
823267303,472,428,17524,191,65,69
823269012,1224,-112,16620,125,54,93
823270745,1188,-520,16376,254,-49,-61
823272449,616,-8,17180,192,-47,-118
823274106,1096,-60,14928,136,54,-103
823275765,-116,-268,16664,146,125,-147
823277425,448,-80,16848,130,164,-166
823279147,816,-72,16336,146,161,-246
823280823,152,544,16596,160,340,-213
823282506,196,112,16564,138,174,-76
823284187,692,-176,16680,137,135,-131
823285864,748,48,16888,113,206,-278
823287543,780,824,16784,77,265,-180
823289276,560,776,17320,57,151,-113
823290980,2180,-36,16072,50,49,-73
823292708,1824,-380,16252,101,-101,-230
823294434,172,596,17856,107,-56,-223
823296156,1276,408,16036,63,-65,-133
823297875,444,-144,17100,5,-145,-172
823299650,648,-372,16684,83,95,-379
823301351,1024,284,15620,54,33,-336
823303044,464,428,16852,17,11,-278
823304737,1224,-248,15528,4,156,-292
823306495,1108,156,15784,115,-29,-460
823308269,-396,428,17256,-84,153,-290
823310109,416,620,15736,-20,185,-277
823311859,-28,740,17556,130,203,-226
823313653,1320,16,16896,79,274,-216
823315446,1600,240,15620,11,260,-213
823317245,1060,828,17068,88,124,-50
823319035,1352,408,16540,51,84,1
823320773,1580,4,16804,-52,-9,-21
823322497,1564,276,17468,-37,194,-124
823324248,2092,136,16264,31,129,-71
823326030,1092,320,17660,45,-100,-43
823327803,1884,-596,16272,31,215,-116
823329539,1824,-336,15044,51,185,-211
823331275,500,-12,16316,12,3,-179
823333024,968,-148,14812,1,317,-156
823334811,956,-500,15120,207,256,-302
823336585,748,212,17108,-105,355,-228
823338347,596,244,16676,63,383,-269
823340125,1580,-92,16360,117,279,-114
823341828,2048,128,16388,80,362,-92
823343497,2024,492,15736,-23,167,-120
823345176,492,724,18164,-16,80,-14
823346852,1956,440,16300,25,301,73
823348516,1668,196,16360,-3,-27,111
823350182,1104,-76,17340,-71,15,-7
823351904,1460,-16,16576,-72,-23,-22
823354735,364,-76,16208,-41,-68,-4
823356501,44,-420,17256,-46,72,-21
823358224,816,-344,15712,4,356,-166
823359939,-412,-276,16912,76,107,-296
823361661,304,216,16524,-101,263,-156
823363389,788,-876,15100,-53,424,-224
823365108,636,604,16596,-27,177,-344
823366799,640,616,16132,-110,242,-322
823368479,240,752,17564,-136,121,-220
823370159,356,32,18080,61,-29,-251
823371972,868,172,16368,-30,-42,-341
823373907,368,284,16888,-166,-178,-331
823375602,-60,484,17852,-258,-133,-202
823377261,792,280,16608,-137,-207,-196
823378912,888,164,17240,-124,-318,-258
823380561,716,264,16128,-239,-296,-238
823382212,-788,32,15860,-248,5,-223
823383903,-1268,-60,16908,-217,-45,-203
823385594,-276,-628,16800,-18,-227,-322
823387304,340,380,15524,-304,46,-249
823389012,-232,-60,17832,-263,98,-227
823390719,296,960,16896,-186,-203,-297
823392427,1072,92,17972,-256,-230,-191
823394160,1380,244,17020,-223,25,-179
823395870,1428,472,16360,-219,-69,-161
823397622,1044,764,16980,-212,-314,-183
823399450,1996,160,16828,-291,-20,-71
823401332,2292,152,16328,-208,-297,-51
823403128,832,620,17088,-285,-391,-63
823404861,1540,300,16032,-338,-310,-47
823406578,1580,92,16844,-307,-194,79
823408273,1416,-136,16264,-201,-168,-67
823409948,1072,-364,15188,-241,28,-175
823411629,388,144,15968,-252,7,-216
823413308,1676,-308,15880,-231,186,-202
823415038,2348,-296,15808,-163,149,-259
823416807,1172,-768,16036,-9,198,-393
823418552,1488,480,15944,-220,326,-227
823420256,1416,-108,16692,-334,199,-178
823421944,2200,644,17352,-133,251,-299
823423629,1704,-44,17112,-153,319,-287
823425324,1008,604,18276,-206,-65,-216
823427007,1292,492,17792,-249,45,-200
823428680,2424,192,16848,-177,71,-256
823430349,1236,-176,17476,-112,-21,-147
823432059,1120,188,16076,-222,-10,-77
823433731,940,0,16696,-282,-106,-48
823435459,1292,-248,16164,-251,143,-107
823437163,1392,-204,15212,-144,82,-112
823438875,-808,-252,16624,-150,114,-166
823440589,-52,-84,14904,-196,269,-172
823442300,32,-720,15920,-156,434,-303
823444037,348,56,17544,-146,413,-276
823445772,724,-492,17376,-16,268,-302
823447563,1440,620,16920,-129,414,-254
823449264,1800,-116,17116,-251,372,-228
823450964,2068,1148,16368,-167,142,-295
823452657,332,184,18296,-184,195,-273
823454348,964,320,16104,-191,35,-112
823456075,456,-160,16736,-213,-109,-169
823457844,316,900,16864,-226,37,-177
823459557,276,512,16956,-206,49,-77
823461279,168,280,16992,-164,-45,-25
823462995,300,76,15976,-164,71,-88
823464722,-160,248,16380,-152,132,-114
823466440,428,0,16184,-150,132,-90
823468150,544,-544,16304,-45,31,-128
823469830,548,224,15760,-107,245,-148
823471495,-196,-144,15852,-242,293,-62
823473229,-164,32,16036,-165,200,-199
823474947,304,64,17604,-214,119,-69
823476611,1196,140,16720,-222,265,-23
823478348,1208,-12,16844,-198,201,-93
823480052,1052,216,17000,-214,-73,-211
823481783,576,424,17208,-231,-4,-135
823483552,1496,284,16848,-189,81,-67
823485274,1356,-148,17284,-195,-149,-157
823486965,876,192,16240,-257,-101,-216
823488721,1332,760,15924,-232,-150,-136
823490505,1320,312,16596,-249,-172,-61
823492237,1164,48,16052,-211,-135,-112
823493928,216,88,15996,-186,91,-153
823495617,-44,64,16744,-200,19,-137
823497299,1288,604,14796,-294,99,-59
823499049,1724,44,16868,-187,93,-67
823500741,1268,624,16416,-78,101,-184
823502434,1276,336,16892,-260,-49,-74
823504131,1052,-44,16844,-307,162,-95
823505828,2340,352,16688,-116,223,-136
823507519,1676,-64,17012,-173,71,-115
823509270,868,36,17196,-291,108,-93
823510977,1884,-56,15984,-256,242,-116
823512693,2396,-148,16496,-178,-4,-90
823514477,2068,-92,15904,-229,86,-73
823516267,940,-212,16956,-314,90,-80
823518044,632,160,16532,-277,136,-142
823519792,1284,700,16768,-283,203,-164
823521479,1332,404,16620,-272,242,-126
823523142,668,396,17980,-141,373,-108
823524818,1700,664,15148,-117,231,-207
823526987,1384,112,16500,-348,412,-33
823528653,12,28,17880,-15,322,-176
823530318,1288,-64,15968,-49,362,-90
823532036,1268,-160,16252,-260,362,-74
823533742,1220,120,17560,-257,507,-144
823535459,1436,-76,17332,-155,341,-124
823537162,1020,-56,17748,-74,269,-143
823538856,2312,-436,16016,-247,425,-110
823540576,2624,-164,15652,-158,237,-153
823542270,1116,-76,16696,-87,222,-233
823543962,1696,168,15704,-222,197,-122
823545698,676,-8,16480,-188,156,-107
823547407,984,612,15816,-96,139,-130
823549103,500,1036,16240,-148,16,17
823550868,-836,512,17372,-150,264,103
823552574,-96,-204,15908,-85,466,95
823554284,-712,288,17132,-56,302,74
823556033,-92,316,16636,-35,424,126
823557756,580,-280,15512,-165,484,246
823559472,504,-340,16200,-77,552,172
823561182,988,-304,16460,-90,356,95
823562902,1060,376,16396,-183,401,176
823564629,1172,40,17376,-86,372,184
823566357,1288,-128,17428,-49,264,138
823568080,1452,-396,17408,-55,90,20
823569794,1108,-320,16428,-76,213,35
823571581,192,-232,17336,-70,97,-20
823573252,148,-492,17928,-14,-33,-114
823574961,724,116,17096,-190,44,-47
823576659,592,276,17036,18,72,-92
823578314,-8,256,17452,96,-63,-108
823579961,136,-196,16272,-43,-136,-14
823581665,424,-440,15716,-92,84,-63
823583341,400,-52,15916,-56,91,-102
823585035,-56,512,15828,-40,40,-45
823586728,228,368,16808,-71,7,103
823588414,1040,20,15996,-38,110,122
823590095,356,-104,17076,-68,-108,24
823591832,-16,568,17240,-52,-81,-8
823593536,500,188,16992,-10,154,114
823595259,468,44,17732,23,-80,111
823596981,1140,-408,16820,-48,-147,-18
823598695,1888,44,16260,-44,-16,-55
823600404,1488,-52,16532,17,57,-42
823602137,1780,-392,15492,92,-167,-242
823603847,1248,-252,16508,-170,-135,-236
823605564,204,112,17652,51,-37,-414
823607284,1680,144,16144,27,-40,-307
823608999,528,180,17836,-66,-193,-270
823610711,1172,-312,16452,-39,102,-340
823612450,1236,372,15724,-44,9,-410
823614168,672,704,16984,-61,8,-351
823615945,1368,368,15328,-80,154,-276
823617785,1460,-16,15476,-8,20,-283
823619542,856,824,16992,-76,15,-288
823621281,1672,724,15648,-110,122,-248
823623093,640,624,18084,-17,138,-126
823624776,1564,-244,17332,98,75,-174
823626438,2756,444,15716,64,84,-301
823628098,1684,480,18004,-56,198,-167
823629751,1684,-772,16256,80,100,-129
823631405,2220,-364,15420,110,-89,-236
823633103,1488,-96,16192,46,127,-253
823634799,1624,364,15392,9,196,-71
823636511,240,-120,17016,83,-3,-4
823638224,1552,-288,14324,117,156,-44
823639934,512,-368,15908,96,215,-99
823641642,-44,492,17008,104,421,70
823643374,548,120,15936,87,410,108
823645089,-20,140,17708,96,345,126
823646796,1192,104,16768,200,437,140
823648506,1332,132,16236,275,165,70
823650213,1272,612,16536,185,264,133
823651921,1100,-32,16760,118,358,308
823653655,1416,20,17476,297,61,163
823655379,1752,84,16816,147,87,246
823657110,1476,-72,17184,64,64,264
823658844,844,-224,17396,110,44,258
823660560,1384,-356,16000,196,22,162
823662277,1008,-72,16260,129,6,112
823663994,484,296,16148,120,139,149
823665743,396,-332,15764,97,16,153
823667445,64,-632,16888,190,40,24
823669149,444,-768,16036,275,89,-103
823670855,248,348,16068,156,198,27
823672552,-316,-120,16892,54,250,86
823674254,1236,144,15884,116,245,-35
823676057,164,132,17488,141,211,-26
823677797,1060,812,16644,134,219,-44
823679487,808,584,16560,124,37,-31
823681154,124,560,17524,111,25,-38
823682816,1252,72,16700,175,-8,-44
823684480,716,244,16740,78,-85,-97
823686209,24,624,17192,12,-63,-62
823687900,28,276,16444,46,-133,-55
823689628,360,20,17924,151,-80,-81
823691340,852,48,16436,212,-185,-214
823693041,604,860,15768,47,-110,-46
823694737,388,-144,16224,28,179,-20
823696504,1604,-220,15984,72,-85,-95
823699336,1456,308,15756,11,190,-28
823701083,988,312,16864,27,121,-2
823702798,1636,-68,15892,24,-84,-112
823704507,1824,-412,16020,-16,88,-200
823706219,828,76,17124,64,74,-127
823708033,1408,-44,15684,67,64,-120
823709736,1208,-188,16980,-6,-7,-173
823711462,1964,-744,16988,61,166,-284
823713174,2752,-200,15412,62,102,-303
823714881,1580,-296,16932,17,76,-300
823716640,1540,-60,16044,-27,187,-337
823718391,1708,368,16508,100,-1,-499
823720130,1532,696,16520,-59,128,-239
823721861,1392,16,16392,41,163,-308
823723543,1288,572,16396,127,109,-326
823725199,1308,516,16936,53,153,-276
823726858,756,888,17024,111,61,-232
823728551,596,316,16844,176,290,-130
823730359,924,904,15644,104,242,-44
823732153,1080,680,16356,84,229,4
823733857,892,520,16432,155,369,53
823735552,1036,532,15936,263,324,170
823737243,560,228,16888,189,296,160
823739002,1364,-408,16288,148,467,215
823740855,648,128,17864,235,391,230
823742673,1280,-364,17040,337,347,165
823744425,1960,-64,15884,89,263,332
823746127,1000,-1420,17132,156,312,254
823747822,1160,-616,16012,304,283,126
823749599,1192,-664,16500,191,197,112
823751300,512,-664,16492,16,416,57
823752991,584,-668,16704,58,352,51
823754667,572,-328,16808,237,254,-141
823756341,1312,-164,16372,186,334,-91
823758013,524,384,16520,78,328,-87
823759684,540,260,16388,100,364,-136
823761403,876,352,16980,133,176,-175
823763260,732,264,17048,310,84,-259
823765082,12,428,17024,122,189,-28
823766853,472,288,16968,103,47,-1
823768564,764,280,16284,130,-21,-116
823770372,1052,428,16012,139,353,-54
823772077,360,528,16680,15,42,43
823773771,228,480,16708,-21,3,40
823775464,844,448,16176,13,176,-29
823777154,780,72,17136,110,-4,-8
823778834,828,-16,15856,40,-39,-17
823780581,184,276,16180,-66,134,-51
823782288,624,240,17440,-33,173,-35
823783998,1368,-28,16068,-10,108,-126
823785766,1076,432,16756,-46,44,-113
823787478,568,28,17040,-66,135,-99
823789186,1288,-348,15788,-65,24,-196
823790898,1028,-76,16848,30,-122,-318
823792607,1860,696,16528,-106,99,-137
823794311,1356,-360,16368,-102,-11,-138
823796092,1344,488,16828,-92,-222,-300
823797805,1768,88,16360,-171,-154,-233
823799512,1676,152,16792,-183,-130,-161
823801288,184,444,17224,-171,-169,-251
823803001,744,412,16068,-213,-138,-277
823804725,692,400,16600,-231,-70,-211
823806435,1704,-104,16372,-135,32,-240
823808151,988,-56,15248,-141,-25,-296
823809867,96,240,16648,-193,89,-348
823811584,1092,324,15536,-179,245,-295
823813302,1068,0,16932,-102,1,-297
823815013,380,-88,17036,-61,169,-415
823816741,1100,292,16228,-154,175,-426
823818731,1176,796,17404,-274,177,-210
823820558,2172,508,17920,-82,43,-317
823822324,2828,136,15816,-142,50,-249
823824048,1392,644,17544,-219,-177,-196
823825742,1980,804,15836,-239,-105,-167
823827465,1644,-28,17188,-160,-231,-146
823829215,460,112,16560,-127,-2,-112
823830912,136,432,14912,-198,57,-101
823832580,-864,192,16948,-136,-172,-122
823834330,568,40,15928,-176,286,28
823836135,600,-296,15036,-26,253,-57
823837881,0,88,16364,-99,259,-125
823839585,488,280,15688,-202,346,-82
823841283,832,-432,18040,-124,342,25
823843057,1296,28,17780,-36,198,-74
823844748,1360,-212,16668,-56,113,-153
823846435,1064,92,18000,-161,202,-80
823848136,1900,-200,16952,-140,95,-55
823849833,1812,-152,16784,-61,-139,-145
823851520,1132,-56,16556,-73,55,-124
823853259,900,340,16124,-86,-109,-165
823854971,676,-136,17208,-283,-103,70
823856692,812,-764,16388,-103,-178,-110
823858401,-416,72,16296,-59,-14,-75
823860131,-604,532,16212,-249,115,-19
823861935,244,468,15344,-290,163,12
823863903,648,456,16360,-47,239,-48
823865702,376,172,16868,-93,155,8
823867390,576,-32,16152,-175,67,13
823869066,904,-44,16688,-256,191,11
823870738,1264,-116,17444,-105,208,-67
823873000,1164,-48,16872,-140,20,-160
823874736,1340,300,16988,-386,103,-40
823876434,1684,-92,17068,-301,70,-21
823878137,2284,-180,16972,-124,-271,-161
823879832,568,8,17188,-308,-137,-148
823881529,540,-36,15860,-380,-14,-187
823883222,204,-32,17196,-324,-155,-137
823884917,1012,-212,17024,-194,-85,-240
823886623,508,184,15984,-178,-53,-286
823888332,-68,144,15868,-226,42,-232
823890038,756,144,15088,-304,79,-146
823891745,892,0,16328,-197,57,-190
823893455,1040,-124,15588,-52,175,-208
823895163,764,668,15424,-211,177,-163
823896870,1028,156,16664,-324,153,-69
823898578,1448,-16,17368,-218,135,-153
823900288,2080,36,16648,-146,62,-159
823901997,1020,192,16876,-321,-27,-123
823903704,1576,196,17008,-352,-7,-102
823905410,1672,-64,17464,-245,-42,-139
823907116,2160,-340,16416,-173,-116,-198
823908823,1308,284,15852,-329,-87,-176
823910528,724,512,16960,-362,-29,-110
823912242,1584,-108,15524,-210,69,-67
823913957,912,-108,15632,-103,-88,-291
823915668,-408,936,15856,-446,305,-147
823917357,140,756,16148,-447,320,-19
823919091,844,832,17344,-140,195,-116
823920844,1604,280,16348,-166,327,-150
823922553,1340,280,16252,-245,465,-74
823924265,656,440,17832,-178,417,-15
823925971,2236,-432,15524,-100,210,5
823927634,2036,-576,16008,-183,269,-125
823929287,1744,-232,16300,-277,363,-85
823930937,1180,132,16512,-284,196,-33
823932586,1092,-104,18024,-126,-9,-21
823934234,2436,-664,15636,-92,26,-52
823935889,1156,-200,17284,-137,36,-216
823937583,316,408,17776,-378,236,-20
823939290,-108,-340,18404,-182,35,-64
823940999,660,-264,16624,2,223,-121
823942709,1548,28,14272,-201,289,-165
823944415,188,588,16940,-297,239,-149
823946125,880,-4,15840,-173,311,-96
823947834,444,-68,15740,-28,269,-2
823949541,192,380,16972,-189,213,-8
823951248,852,304,15508,-283,344,-21
823952955,596,332,17348,-185,320,72
823954661,920,396,17512,-87,110,110
823956374,1360,72,16692,-74,-68,68
823958085,1024,1084,16824,-359,173,104
823959793,616,684,17532,-187,133,185
823961505,940,308,17620,-42,-181,224
823963223,1420,-64,16428,-65,-38,198
823965021,1344,-408,15340,-178,166,133
823966843,444,-348,16064,-196,4,182
823968563,0,-216,17064,-165,105,173
823970230,172,-256,16704,-166,153,185
823971894,424,68,15828,-201,214,160
823973556,608,-124,16516,-200,182,135
823975219,640,-420,17476,-145,89,148
823976938,1044,-836,15980,-35,234,70
823978636,1264,112,15608,-195,299,41
823980347,364,-204,16728,-278,199,74
823982055,848,356,17084,-208,185,61
823983772,1520,316,16528,-156,167,85
823985487,1280,356,16704,-233,122,-89
823987222,508,624,17476,-249,170,-68
823988932,480,384,17844,-70,36,-40
823990641,1268,-344,17088,-132,-98,-78
823992350,1672,-144,16996,-266,78,-255
823994059,1072,-44,17440,-239,4,-228
823995767,804,-160,16924,-124,-100,-187
823997500,1356,-336,14604,-263,-15,-182
823999210,432,-352,16168,-320,44,-259
824000918,784,204,15084,-301,188,-241
824002624,-52,360,16628,-232,103,-208
824004339,-68,184,16740,-247,264,-213
824006048,760,-184,15608,-265,285,-251
824007778,68,848,17232,-238,267,-190
824009489,516,404,18348,-155,211,-97
824011200,816,492,17244,-159,106,-50
824012915,1000,-136,16952,-128,202,-195
824014630,2076,224,16468,-235,211,-162
824016339,1848,544,17204,-220,47,-77
824018117,1800,428,16780,-162,91,-59
824019825,2332,-392,16328,-97,-79,-128
824021546,1120,200,17084,-156,-15,-186
824023253,244,-284,17812,1,78,-196
824024955,380,576,16924,-51,-49,-122
824026641,112,-1220,17116,-47,42,-142
824028332,1520,100,15360,-60,241,-265
824029997,392,216,17024,-74,326,-195
824031667,1372,32,15648,-55,270,-55
824033331,1680,-548,15728,38,93,-120
824034995,1736,-412,15676,59,281,-219
824036663,1680,380,15556,-19,249,-84
824038396,336,320,17812,-85,100,-41
824040096,1360,-168,16072,-72,176,-42
824041811,620,60,17724,65,111,-41
824044377,304,912,18348,50,-89,69
824046098,1428,512,16304,-75,18,173
824047810,820,-440,17212,52,-125,154
824049584,512,580,18336,157,-121,182
824051280,1572,-56,15548,28,45,325
824052982,212,152,16844,-19,-28,355
824054683,204,-80,15408,83,-4,229
824056377,104,-116,14640,133,202,232
824058070,-24,620,16172,65,514,286
824059823,-712,812,16448,88,388,406
824061533,492,-156,16504,175,138,314
824063251,476,-64,18992,253,426,305
824065035,1244,-436,18184,262,249,300
824066827,1204,-440,17020,196,7,312
824068570,1940,-1152,15612,86,106,195
824070388,1788,-556,17568,121,-73,167
824072086,2400,-480,17056,214,-58,186
824073769,2216,680,15592,-16,-70,287
824075449,896,-668,17240,41,-214,134
824077124,584,-220,15564,223,-103,73
824078803,-588,388,17116,132,-221,80
824080531,-836,776,16544,-35,58,156
824082236,-536,420,15572,121,304,-3
824083990,-1428,980,17116,226,107,-47
824085882,632,436,16228,231,213,-24
824087752,1104,40,16536,94,253,-30
824089525,912,-328,16068,122,225,-139
824091339,1848,-292,16260,141,310,-118
824093030,1260,-132,17964,74,107,-108
824094707,1920,-88,17152,-60,184,-142
824096380,2408,-196,16668,-69,-35,-191
824098050,1740,248,16812,-17,-300,-170
824099721,1556,280,16284,-12,-137,-156
824101444,1392,432,16488,46,-336,-331
824103141,-36,296,16896,-216,-116,-170
824104853,192,128,16388,-62,-180,-247
824106560,564,368,16324,143,24,-172
824108269,1356,60,14660,62,168,-196
824109980,40,-208,15712,-37,94,-218
824111698,-68,32,15548,-79,322,-235
824113413,528,260,15856,118,323,-156
824115123,264,100,17644,92,233,-136
824116831,1500,252,16404,31,250,-151
824118538,1028,172,17996,33,250,-143
824120287,1524,236,18832,211,119,-10
824122082,2516,-140,16288,185,-86,19
824123820,2692,-612,16276,97,41,-37
824125494,1852,-56,15992,24,64,-140
824127166,896,208,17376,56,-172,18
824128834,1312,624,15976,63,-142,79
824130479,1568,-652,16772,226,-20,37
824132128,1676,640,15500,120,62,33
824133795,-164,572,17488,-9,-59,104
824135477,-244,-448,16924,161,86,39
824137166,784,-508,15480,255,343,-52
824138854,740,40,16384,206,361,-96
824140535,1312,628,14996,85,311,-51
824142214,1156,256,16812,215,344,3
824143913,1624,-468,17816,253,262,28
824145622,2144,-644,15640,197,152,-35
824147331,964,604,16992,106,380,-1
824149038,1560,416,16964,151,358,112
824150741,852,188,18512,156,154,124
824152452,1984,392,16576,153,153,76
824154226,1572,752,16468,168,66,123
824156075,80,448,17608,131,45,228
824157858,128,376,16812,187,37,242
824159584,348,-408,16544,329,168,99
824161304,920,144,15956,209,308,352
824163054,552,-516,15724,269,107,192
824164818,196,-204,17316,140,225,247
824166591,1444,-428,16100,168,295,296
824168302,1132,-676,16896,234,197,327
824169986,612,-548,16304,169,289,217
824171664,492,-440,16632,126,415,186
824173407,1076,-580,16612,124,295,141
824175099,1528,-680,16148,179,241,147
824176801,1216,-404,16856,180,258,140
824178486,508,-20,16140,131,121,115
824180178,56,492,16888,64,99,49
824181868,136,400,17896,212,162,100
824183608,604,144,16704,312,96,-8
824185322,120,332,16448,-3,93,118
824187043,-368,404,17508,198,-20,5
824188761,580,392,16884,216,-7,59
824190551,644,120,16064,175,89,123
824192384,448,160,16112,-23,99,54
824194228,196,172,17000,54,11,-23
824196082,684,-116,16996,138,175,-10
824197885,1088,-184,16340,-19,97,-80
824199638,656,-104,16656,-69,56,-145
824201403,416,164,16608,5,175,-188
824203129,1096,296,16440,68,103,-102
824204821,992,384,16740,-2,-5,-170
824206501,1180,264,15944,-72,155,-235
824208176,852,676,16640,13,92,-176
824209840,1400,128,16480,45,37,-134
824211519,1260,184,16344,-6,-63,-160
824213197,640,540,17196,-153,106,-164
824214920,912,520,16584,-113,64,-112
824217630,1232,-356,16492,151,-85,-211
824219374,1500,-148,16868,13,64,-146
824221091,888,-1128,16760,-43,172,-276
824222840,1764,-400,15444,43,123,-319
824224592,988,-432,17056,0,191,-278
824226356,2044,-724,15488,-27,203,-258
824228108,1444,-232,16256,-99,13,-388
824229792,1216,416,17348,-65,214,-325
824231445,1544,144,17144,6,116,-230
824233108,800,-32,16832,64,99,-265
824234784,924,688,16368,-11,268,-317
824236504,-56,928,18008,-31,195,-256
824238191,884,968,17088,52,276,-56
824239894,1648,488,15736,140,186,3
824241590,848,-180,16916,201,96,-137
824243281,1312,1516,15856,-49,197,57
824244978,836,-56,17124,51,185,122
824246742,1856,-164,16228,84,135,61
824248450,1292,-208,16816,-34,26,19
824250162,1256,332,16772,-180,228,38
824251871,1432,48,17120,-58,-13,117
824253579,1336,172,15828,-57,113,77
824255287,836,-20,16344,-102,182,48
824257021,460,1024,16736,-193,90,49
824258729,84,428,17696,-133,128,94
824260439,104,348,17044,-59,98,143
824262153,588,124,16512,-49,-3,182
824263886,544,752,16992,-185,-40,179
824265663,564,200,17124,-210,129,273
824267493,-8,388,16984,-97,26,255
824269197,704,116,16740,-67,16,219
824270884,1364,284,15916,-72,-73,22
824272557,292,28,17652,-235,107,239
824274227,540,-684,16860,-59,-80,175
824275897,916,-544,16268,-58,-131,47
824277623,556,292,17376,-323,109,14
824279320,868,-116,16700,-325,119,54
824281028,396,-492,17528,-163,-137,-42
824282736,1004,-480,15860,-169,1,-171
824284443,508,-204,16940,-256,-8,-202
824286149,264,332,16332,-326,63,-178
824287884,132,72,16308,-210,-63,-187
824289593,492,96,16120,-208,81,-163
824291298,604,-40,15808,-215,155,-209
824293007,960,464,15932,-336,-10,-185
824294712,60,368,17916,-227,17,-200
824296419,576,364,16328,-149,17,-188
824298152,360,260,16940,-204,-144,-230
824299861,776,580,17068,-298,44,-261
824301569,1444,-208,16640,-66,-39,-382
824303299,1468,804,17308,-141,-76,-194
824305007,1936,-712,15176,-180,-114,-333
824306713,1552,64,16140,-307,-128,-386
824308446,196,-200,17532,-248,-28,-296
824310154,616,-204,16144,-220,-118,-304
824311865,132,-104,16692,-309,-186,-311
824313602,660,780,16012,-342,272,-318
824315342,224,964,17544,-371,113,-206
824317068,372,712,17020,-268,-40,-94
824318801,1032,456,15752,-210,121,-76
824320493,1004,584,16604,-230,-31,-51
824322170,1764,548,15392,-273,72,16
824323852,1448,300,16248,-216,79,102
824325569,1376,-104,17148,-87,75,101
824327332,2632,-240,15032,-202,93,34
824329075,2472,28,16756,-287,88,48
824330787,2564,-784,16876,-175,129,12
824332483,2416,-988,15480,-59,-84,-71
824334166,2324,-780,15884,-141,71,-117
824335853,2220,-444,15912,-309,86,-212
824337532,1056,-620,17748,-167,57,-181
824339209,1412,-396,15676,-70,135,-219
824340892,1028,244,15092,-117,19,-234
824342596,892,-64,15688,-202,464,-248
824344386,388,408,16776,-44,307,-283
824346197,644,1272,17300,-112,240,-21
824347985,372,784,15852,-90,414,-9
824349807,1752,812,15816,-111,394,29
824351571,1116,504,17132,-221,122,174
824353319,528,268,17352,-131,165,196
824355041,1204,-48,15972,-81,238,139
824356737,600,416,17772,-223,158,152
824358472,928,384,17380,-222,198,236
824360232,632,-176,17432,-107,175,218
824361958,1080,148,16308,-15,162,147
824363642,1344,168,15836,-194,81,171
824365358,532,-180,16684,-203,116,252
824367133,408,72,16772,-93,224,261
824368855,1000,-24,15176,-148,46,233
824370527,764,20,16704,-299,67,208
824372210,1460,344,16576,-276,180,292
824373907,948,-472,16580,-44,22,328
824375608,668,-480,15164,-183,62,191
824377317,780,-168,16076,-326,222,153
824379019,640,-472,17316,-179,188,133
824380722,856,180,15888,-82,182,41
824382496,324,-196,16056,-214,210,32
824384214,1084,296,17052,-195,235,-48
824385930,812,-548,16884,-219,199,-50
824387648,316,-320,16956,-156,147,-130
824390188,700,276,16496,-229,174,-170
824391911,1640,-148,16356,-244,238,-161
824393697,1416,204,16880,-221,17,-170
824395397,120,644,17036,-210,1,-198
824397084,896,680,15600,-226,30,-144
824398772,820,568,17816,-329,-86,-34
824400463,764,460,17208,-246,-22,-30
824402173,856,4,15692,-161,15,-64
824403933,32,704,16584,-206,29,-35
824405627,1232,-252,15328,-197,73,-52
824407322,1076,208,15076,-223,180,-39
824409014,620,-504,15488,-240,344,-15
824410704,560,-200,16000,-219,133,-95
824412421,1336,-172,16728,-329,303,-61
824414174,2128,-48,16036,-256,384,-134
824415913,1540,-508,17336,-278,195,-201
824417612,1620,-176,17468,-249,247,-325
824419311,2784,-108,16232,-203,256,-232
824421007,1844,-504,17644,-149,138,-247
824422722,2104,-68,15992,-215,85,-393
824424440,1104,844,16908,-260,41,-353
824426129,1564,768,16624,-154,88,-141
824427794,1048,688,16664,-178,-22,-90
824429465,508,556,16436,-164,79,-177
824431137,-352,820,16472,-114,248,-26
824432790,-104,696,16708,-88,142,71
824434497,744,-216,16040,-98,226,143
824436176,1552,-64,15792,-190,425,66
824437864,892,116,16436,-173,455,76
824439543,1852,300,16464,-130,360,231
824441224,2224,-396,16024,-101,248,211
824442903,1904,-656,15864,-126,338,134
824444638,1596,-12,16492,-263,407,117
824446342,860,172,18736,-179,191,183
824448073,1724,-464,16772,-91,377,132
824449781,1380,-380,17152,-107,261,77
824451487,520,468,17560,-189,162,56
824453196,1272,24,16892,-180,227,181
824454906,584,-268,17348,-122,197,197
824456610,536,300,15924,-72,184,98
824458317,504,828,16244,-109,241,155
824460053,-24,428,17532,-13,255,303
824461765,780,84,15972,99,236,276
824463477,532,-68,16288,65,133,227
824465188,276,216,16684,-86,260,313
824466901,540,288,16292,-61,324,366
824468648,160,144,17532,9,170,425
824470356,912,-236,17080,-56,135,397
824472072,1264,-112,16296,-1,269,352
824473755,1112,-332,16924,11,284,379
824475459,836,-772,16016,-32,77,294
824477143,1044,-428,16048,-128,136,165
824478825,940,-144,16036,-117,402,187
824480508,636,-120,16968,-71,77,233
824482188,364,-136,16692,-106,70,160
824483866,600,-76,16352,-111,169,106
824485613,-524,428,17568,-1,83,120
824487314,144,228,17332,28,85,146
824489021,652,28,15228,-33,218,115
824490732,-360,56,17056,2,169,96
824492440,432,508,16184,23,23,67
824494145,488,364,16840,-18,75,108
824495879,-152,156,17184,26,82,78
824497587,288,-160,16892,2,-35,49
824499293,576,292,17580,14,-73,46
824501004,1244,-32,16628,45,87,55
824502710,820,-384,17664,63,-58,-15
824504416,1376,276,16316,-54,-148,-20
824506148,1056,120,16656,-3,-138,7
824507857,1040,-376,17060,67,-188,13
824509564,1812,-288,15220,-43,-170,-19
824511278,896,-416,16404,-167,-167,-156
824512995,568,-212,16452,0,129,-139
824514713,864,-204,16840,79,33,-110
824516464,1236,-276,15808,15,33,-175
824518173,1236,-340,15536,-70,260,-258
824519854,756,-148,17088,93,127,-227
824521534,1540,8,16492,99,73,-164
824523216,1232,28,16856,55,51,-216
824524896,1192,208,16952,-13,216,-238
824526618,1272,328,17164,32,63,-221
824528308,1564,396,17656,123,-27,-122
824530010,2312,200,16420,97,33,-97
824531703,2116,76,17032,93,29,-100
824533377,1444,860,16796,23,-91,-8
824535052,1124,416,16892,92,-141,52
824536790,636,-136,17120,187,-61,27
824538473,1472,268,15768,137,-35,-2
824540156,240,380,16632,106,-29,103
824541833,596,92,16076,136,275,243
824543512,424,236,16900,195,107,240
824545190,1176,-364,16036,171,178,205
824546869,1700,240,15192,107,285,261
824548603,1216,52,16416,135,420,305
824550303,2008,-84,15408,125,264,321
824552041,1576,-56,17164,151,173,254
824553754,916,340,17836,260,257,301
824555461,1600,252,16764,244,105,319
824557167,376,232,18836,201,-15,333
824558901,1528,-736,16316,302,258,298
824561749,676,52,16172,186,158,261
824563523,-508,-4,17228,128,-32,276
824565252,-12,-116,17120,243,173,94
824566977,440,-784,16016,217,115,243
824568702,520,4,16024,272,97,173
824570478,672,168,15072,154,286,232
824572173,-20,-284,16048,106,214,169
824573831,-36,108,17656,203,164,113
824575488,444,292,15940,212,218,100
824577145,12,336,17556,99,303,165
824578801,356,348,17468,13,21,162
824580458,548,256,17440,103,36,106
824582147,824,548,17064,215,181,163
824583853,412,672,16412,109,-13,262
824585561,304,468,16620,-14,3,245
824587268,648,160,16988,34,-79,166
824588974,496,416,17356,193,-133,212
824590712,684,-32,15944,35,-20,190
824592423,-156,-136,16664,-81,-99,169
824594130,-376,32,16776,-15,44,70
824595838,880,-404,15556,160,30,59
824597544,344,-528,16604,127,27,-13
824599249,940,24,15632,-35,195,-76
824600981,988,104,16384,30,99,-70
824602689,1368,-64,17200,192,48,-50
824604397,876,-36,16904,177,-30,-76
824606104,996,36,16892,37,39,-97
824607814,1424,132,16052,-15,55,-111
824609670,1852,132,17188,50,-87,-99
824611577,1744,-32,17068,82,28,-109
824613356,1968,92,16460,83,-139,-162
824615111,1428,840,17000,-43,-199,-137
824616876,1652,-752,17196,97,42,-131
824618605,2036,36,15496,208,-104,-220
824620285,1384,-340,15900,59,-40,-231
824622045,1144,-92,14756,-72,152,-217
824623738,1112,0,16620,100,203,-197
824625422,1196,-96,16348,196,177,-222
824627105,2320,232,15052,63,160,-239
824628781,1256,540,17152,49,279,-182
824630454,2096,120,16016,113,277,-156
824632192,1100,-12,17088,154,102,-160
824633853,1248,232,16768,55,328,-185
824635514,1000,292,16944,40,308,-123
824637173,856,744,17536,85,145,-63
824638831,2040,200,17252,112,161,13
824640486,2028,104,17804,132,37,-2
824642184,1496,272,16820,146,213,-29
824643877,2060,-152,15220,100,163,-4
824645591,1372,-272,16400,106,146,-4
824647299,1668,-440,15808,188,295,-48
824649008,1408,-128,15188,138,190,-67
824650717,364,104,16992,91,167,-10
824652455,1204,-84,15116,84,296,-19
824654166,588,-40,17304,133,249,-49
824655874,336,844,17128,60,313,-91
824657582,880,444,16756,73,438,36
824659288,268,508,18072,165,292,42
824660994,748,-440,16620,384,109,-138
824662705,912,604,15616,-29,238,80
824664421,-164,432,16612,-82,297,159
824666129,360,716,16964,19,87,176
824667828,532,-184,17372,-31,-46,113
824669554,524,404,17424,-97,85,134
824671314,596,392,17004,-61,-65,210
824673137,-196,-104,17108,-48,-81,125
824674828,-68,-52,16388,-110,131,70
824676503,564,36,15656,-118,39,-45
824678167,-192,68,16144,-191,125,-44
824679830,44,44,16708,-173,-49,-107
824681494,116,-120,17112,-132,-1,-116
824683203,668,-160,16300,-98,2,-162
824684932,-528,684,16964,-171,-94,-154
824686661,-392,348,17396,-167,-25,-120
824688416,628,284,15884,-137,-10,-53
824690196,76,348,17080,-155,-72,-62
824691997,1312,724,16304,-241,-187,-30
824693910,616,208,16896,-238,-240,63
824695660,104,412,17536,-215,-315,55
824697450,1152,-52,16484,-288,-343,3
824699233,1120,-4,17140,-339,-322,-16
824700973,1124,-524,16292,-250,-109,-68
824702677,1560,-944,15492,-233,-372,-227
824704455,1240,-924,16588,-321,-234,-337
824706148,2616,-1148,15052,-313,33,-401
824707836,1172,-784,16196,-290,-145,-461
824709517,868,-468,16604,-315,-72,-592
824711218,1456,-144,15832,-317,32,-643
824712953,1784,128,17160,-223,108,-660
824714713,1560,380,16756,-202,14,-652
824716438,1724,540,15972,-152,-43,-667
824718144,1756,652,16944,-146,82,-613
824719828,2564,860,15940,-187,5,-529
824721562,1092,1024,16988,-154,-228,-372
824723365,660,900,17380,0,-214,-335
824725153,1976,1568,15324,-115,-145,-218
824726918,1076,-276,17340,-166,-264,-25
824728674,1232,168,16692,-134,-38,-2
824730412,1412,60,15284,-131,45,99
824732130,1304,-24,16032,-212,62,105
824734375,1668,-256,16660,-197,163,-5
824736144,1796,-492,15980,-171,257,8
824737867,1800,-508,16548,-149,128,-17
824739556,1664,-740,16400,-200,289,-166
824741242,1648,-388,16308,-188,450,-218
824742926,768,-332,17388,-141,376,-208
824744614,816,-56,16580,-124,247,-207
824746307,1360,172,16732,-224,259,-204
824747980,1676,240,17168,-207,286,-205
824749683,892,668,16808,-120,174,-176
824751359,84,640,17348,-68,-68,-126
824753019,948,616,16112,-104,130,-105
824754685,1080,196,16192,-79,57,-94
824756380,20,16,16664,-35,8,-12
824758059,280,-156,15892,-20,83,-17
824759727,-204,240,15280,-133,92,42
824761425,-168,528,16988,-151,142,116
824763123,404,744,17252,-153,71,197
824764847,88,352,17436,-114,72,226
824766598,392,212,15916,-15,80,156
824768290,948,368,16248,-161,6,175
824769992,1136,964,17252,-325,149,441
824771758,944,640,15488,-85,73,251
824773482,592,500,16084,-247,-33,328
824775159,996,-164,17556,-325,1,348
824776875,1272,216,17184,-230,-26,326
824778559,128,-216,17512,-65,8,162
824780226,988,-180,15428,-239,-77,137
824781901,776,-228,17292,-358,-118,134
824783575,1376,-888,17184,-184,60,-47
824785248,816,-764,15636,-123,-48,-121
824786940,156,-1000,16296,-206,-17,-181
824788621,1020,-724,15156,-374,143,-192
824790286,1532,-912,16400,-227,-11,-305
824791961,1448,-588,15664,-219,98,-378
824793674,668,-116,16604,-324,-1,-439
824795337,1272,280,16476,-361,60,-361
824797016,1292,-216,16668,-288,53,-366
824798720,1612,468,16460,-237,-121,-446
824800389,584,280,16644,-262,-20,-434
824802056,656,968,16528,-248,-146,-342
824803737,664,508,17328,-238,-151,-304
824805406,752,688,16788,-217,-24,-284
824807073,932,1208,16536,-281,37,-178
824808769,152,1824,17084,-295,-137,-73
824810453,1480,488,16880,-235,-66,24
824812140,1520,400,15980,-175,67,-34
824814209,92,268,17556,-143,50,-29
824815936,272,-212,15980,-67,-70,-123
824817676,1552,-308,16396,-212,177,-2
824819417,1120,-972,16060,-107,288,-61
824821115,1408,76,16196,-194,250,-66
824822787,1100,500,16596,-288,219,12
824824506,2368,-500,16908,-245,335,51
824826580,2520,-52,15200,-122,315,-53
824828360,1264,48,16900,-208,119,-85
824830151,1228,368,16524,-280,305,-19
824831838,1684,-332,16976,-160,366,0
824833487,1304,8,16572,-64,205,-117
824835133,1028,-36,16460,-163,83,-129
824836776,1876,340,15336,-233,274,-57
824838414,1824,-836,17612,-88,179,-132
824840056,752,-172,16620,-38,159,-204
824841738,564,-32,16136,-93,211,-196
824843420,168,708,16608,-161,312,-122
824845132,1196,-268,16944,-116,172,-101
824846840,908,552,16756,-92,64,-112
824848545,-48,352,16588,-142,409,-56
824850248,664,956,16228,-225,389,68
824851977,768,592,17228,-216,27,162
824853709,1160,844,16348,-162,278,168
824855414,512,364,16936,-81,303,284
824857120,492,1088,16668,-186,3,338
824858822,940,452,16144,-188,22,399
824860592,236,140,16772,-83,213,391
824862498,-172,-148,16532,-142,188,391
824864251,860,80,15804,-224,242,389
824865965,1488,-1304,17084,-10,256,267
824867667,1296,-644,16780,105,150,188
824869362,1396,32,16428,-213,213,355
824871053,1176,-432,16152,-149,157,94
824872817,1368,-824,16584,-107,242,21
824874538,1396,-472,16384,-143,172,1
824876224,876,-580,17096,-204,152,-54
824877880,892,416,17048,-142,103,-113
824879532,1636,-20,16368,-123,104,-92
824881181,672,160,16560,-181,21,-74
824882886,-36,-68,17044,-185,94,-118
824884569,120,836,16256,-171,108,-75
824886261,428,292,17436,-139,38,-64
824887955,1020,256,15764,-201,128,-100
824889651,260,208,17084,-242,113,-94
824891341,820,436,16496,-204,94,-79
824893096,1276,-420,16620,-220,105,-100
824894801,588,128,16024,-271,273,-132
824896508,152,-148,17136,-247,301,-173
824898218,1564,-360,15500,-225,160,-206
824899925,1908,-348,16756,-268,203,-268
824901630,1512,-188,16460,-266,281,-276
824903338,864,-100,17368,-234,208,-255
824906179,1384,-272,16824,-318,170,-267
824907926,1484,244,16428,-295,299,-279
824909640,808,20,17284,-244,205,-292
824911452,2032,340,15176,-228,163,-355
824913238,2164,268,16524,-1,52,-466
824914974,1760,888,16224,-150,140,-147
824916696,684,-504,17044,-95,158,-272
824918400,1876,276,15416,-28,137,-343
824920086,1992,-524,16224,-35,165,-252
824921767,216,-104,16828,-76,181,-248
824923483,1024,188,16528,-75,187,-246
824925216,1324,-224,16528,-77,239,-233
824926921,1828,-240,15844,39,327,-168
824928601,648,0,16440,-12,250,-158
824930283,104,128,16996,-94,252,-161
824931962,684,0,17468,-64,396,-90
824933723,2092,352,16340,74,322,-24
824935401,1048,404,17692,26,240,46
824937061,1588,168,16648,-68,204,81
824938715,1312,268,16604,27,50,86
824940370,936,296,17020,86,106,76
824942024,648,164,16172,102,94,183
824943717,-144,436,17140,118,93,231
824945409,1316,-20,15420,137,147,202
824947161,948,244,16556,135,-45,205
824949024,-540,504,17608,96,135,312
824950865,-88,4,16296,152,156,345
824952650,504,-484,16380,241,111,285
824954473,-104,-260,17508,316,143,250
824956172,848,-704,15560,258,299,391
824957881,424,-1076,16436,185,2,225
824959578,1304,-1168,15060,174,102,173
824961260,1196,-288,16508,58,200,227
824962953,272,-300,17912,85,93,278
824964664,572,-192,17740,68,10,140
824966383,600,-156,18092,95,-184,102
824968092,796,-284,17872,284,-113,25
824969790,512,-204,16528,124,-58,4
824971482,376,200,17084,87,-186,-37
824973175,1052,-188,16740,61,-76,-128
824974933,1432,240,15980,242,-123,-160
824976645,580,460,16136,142,-269,-95
824978299,276,372,15888,58,-179,-137
824979950,536,120,16304,165,-90,-212
824981598,272,320,16480,278,-175,-154
824983247,640,96,15184,193,-26,-121
824984959,40,328,15824,23,72,-103
824986666,980,160,17080,66,-61,-54
824988617,1564,464,16452,120,-19,-33
824990443,1232,384,17108,36,26,5
824992190,884,500,16592,-60,23,-17
824993905,2148,-408,16172,-48,-26,-102
824995704,2396,-436,15796,31,-27,-152
824997409,1536,-124,17112,11,34,-130
824999102,1900,-208,15532,-24,-17,-199
825000794,1848,-556,16744,-42,-156,-302
825002484,1320,-260,16468,11,-80,-296
825004218,1416,-316,15972,116,25,-265
825005974,404,-84,16044,-3,-53,-395
825007678,896,-568,16888,-88,125,-390
825009385,936,-60,17144,24,55,-423
825011095,1336,724,16844,114,201,-320
825012815,1560,452,15532,61,99,-313
825014566,1760,-72,16320,96,137,-339
825016320,1400,488,17088,211,209,-309
825018048,1832,184,15892,225,41,-244
825019740,596,44,16112,40,142,-195
825021417,860,104,16116,31,255,-180
825023093,1072,224,17912,219,18,-171
825024789,1904,524,17132,181,91,-93
825026557,1388,64,16024,153,217,-116
825028244,888,180,17416,118,82,-58
825029924,904,84,16180,183,170,-55
825031605,1812,252,15500,180,261,-9
825033363,340,24,16744,141,298,25
825035159,736,376,15648,124,299,39
825037013,912,348,16664,174,161,92
825038700,1036,252,16860,284,324,203
825040379,548,436,16004,279,291,248
825042099,-204,392,17280,174,189,274
825043835,1044,-104,16852,211,396,303
825045523,1944,172,15768,315,315,331
825047184,1336,316,16736,239,315,403
825048891,1476,-160,15800,143,178,307
825050595,1080,-288,17280,173,197,272
825052293,1364,-216,16724,272,233,290
825053986,1240,-904,16768,313,102,171
825055676,824,-1136,16784,146,219,11
825057476,1376,-1052,15660,183,233,-43
825059190,244,-900,17028,267,106,-92
825060904,804,-344,16412,146,196,-156
825062622,336,416,16112,25,236,-136
825064340,308,668,17176,152,80,-150
825066056,60,964,17528,218,20,-115
825067842,800,772,15948,190,143,-103
825069523,-68,944,16424,62,149,-76
825071187,152,1012,17272,25,-66,-26
825072851,104,1012,17108,94,-113,56
825074516,240,852,17340,83,35,136
825076252,388,444,16716,-32,-82,170
825078574,1424,56,16716,-9,-59,54
825080249,888,-380,17236,67,-57,75
825081905,1580,-360,15964,71,1,4
825083558,1324,-396,16408,-140,-12,-82
825085220,548,-428,17064,-178,-151,-124
825086886,1096,-184,16872,-68,-58,-196
825088592,1268,-428,16136,-143,-4,-144
825090286,828,-8,16576,-216,-12,-274
825091996,352,272,16744,-250,-25,-278
825093739,808,-48,17056,-117,-2,-244
825095448,720,4,16700,-80,-39,-289
825097156,616,284,16028,-106,-21,-301
825098887,368,80,17236,-133,31,-273
825100596,1020,88,16872,-45,18,-234
825102302,1576,284,15640,-56,38,-276
825104034,972,-168,15848,-81,154,-257
825105743,1604,52,16676,-147,-4,-300
825107450,2272,-16,16608,-103,-68,-317
825109181,2124,36,17316,-104,-30,-281
825110892,1940,356,15960,-71,38,-279
825112605,1160,400,16760,-83,-231,-327
825114317,824,332,17504,-81,-116,-289
825116053,2176,268,16080,-67,10,-233
825117838,520,28,16040,-30,-8,-232
825119707,724,292,15840,-122,122,-184
825121400,1332,408,15652,-131,144,-106
825123061,1336,892,16416,-80,188,-18
825124735,1460,536,15308,-89,231,61
825126410,768,344,16348,-110,79,33
825128084,1128,288,15632,-97,219,54
825129812,1416,340,16276,-109,188,77
825131486,576,-144,17800,-119,88,57
825133169,864,112,16772,-67,220,0
825134853,1508,-300,16516,-85,130,-16
825136538,1744,-380,17608,-114,-59,-31
825138223,620,-504,16788,-92,179,-35
825139925,356,-260,16828,0,60,-63
825141605,788,-424,16352,-108,33,-91
825143286,1212,-112,16036,-159,63,-146
825144965,244,448,16924,-121,115,-93
825146640,152,460,16748,-27,-12,-29
825148319,696,404,16196,-188,-39,9
825150095,268,984,16708,-173,-6,-74
825151822,564,1120,16812,-184,135,55
825153578,228,-20,17312,-12,-153,143
825155320,352,-164,16912,-71,-195,24
825157047,880,-220,16632,-183,-24,47
825158788,1148,-68,15748,-208,-29,77
825160606,364,-596,16976,-166,-189,9
825162292,1320,-532,16612,-214,75,-90
825164032,1724,128,16328,-264,-76,-199
825165783,1192,-8,16848,-265,-38,-186
825167466,672,-272,15748,-181,-147,-260
825169117,464,-204,16536,-191,-32,-334
825170820,1116,-304,15884,-252,-54,-388
825172485,348,460,16552,-341,31,-300
825174156,1088,480,16080,-179,-1,-275
825175825,1180,432,16452,-140,-84,-254
825177495,1620,772,16544,-230,-194,-385
825179163,624,484,16688,-304,-59,-216
825180882,444,752,17412,-213,-74,-129
825182577,716,364,15976,-108,-148,-131
825184283,976,388,15984,-275,-205,-172
825185988,216,324,17836,-318,34,-55
825187694,1156,180,16948,-201,-143,-13
825189407,1096,-200,16432,-198,-207,-86
825191142,1280,100,16380,-324,20,-198
825192853,944,56,16200,-338,128,-184
825194560,996,-116,16600,-202,-77,-150
825196268,1812,-916,16356,-196,68,-284
825197978,1644,-40,16252,-243,151,-351
825199686,1192,172,16556,-201,159,-328
825201396,2648,-372,15764,-203,63,-261
825203103,2376,-520,16060,-211,90,-350
825204811,1644,-48,16740,-197,141,-351
825206518,444,564,17184,-260,73,-340
825208226,1204,1156,15632,-254,17,-237
825209938,1624,364,17544,-138,46,-189
825211654,1764,224,15896,-102,62,-169
825213365,508,64,16632,-154,1,-243
825215074,1008,104,15920,-270,175,-67
825216789,1232,-412,16276,-210,220,-33
825218557,1064,-184,16288,-108,80,-99
825220339,204,396,16756,-241,226,-110
825222176,1672,356,15728,-247,331,-35
825223862,2256,-420,16432,-74,146,-69
825225553,1352,-80,15880,-105,239,-46
825227229,468,-240,16828,-171,277,-95
825228889,804,364,16836,-222,226,-11
825230577,1304,-328,16584,-212,240,0
825232305,1100,-48,17172,-100,140,-59
825233988,400,56,17904,-127,136,-7
825235686,968,56,15876,-180,-56,-13
825237395,508,-296,18192,-246,-2,-52
825239088,1192,-236,17512,-139,64,-51
825240774,740,-168,16776,-75,52,-62
825242480,540,276,15996,-198,24,-54
825244166,1052,-288,16036,-234,139,-168
825245854,376,656,16252,-124,174,-121
825247543,-340,340,16448,-79,222,-73
825250143,824,-24,16408,-164,187,-149
825251860,1112,428,16476,-125,298,-91
825253623,380,320,17000,-43,263,-60
825255326,512,-172,16392,-54,4,-64
825257029,748,0,16228,-263,246,-11
825258724,1172,-220,16540,-250,239,-52
825260429,316,312,17620,-160,92,11
825262131,1188,472,16224,-131,0,-74
825263857,1264,-248,16508,-292,94,-83
825265638,1400,116,16864,-215,116,-123
825267401,1508,-424,15888,-186,90,-96
825269106,616,4,15940,-195,-18,-59
825270816,580,-292,16640,-252,126,-170
825272523,1468,-88,16328,-238,77,-235
825274252,692,624,17104,-213,67,-149
825275957,1240,-176,15456,-146,185,-160
825277695,616,-448,16184,-182,195,-336
825279395,600,292,16148,-213,169,-344
825281112,388,144,16692,-218,288,-168
825282819,1636,-228,15672,-105,246,-156
825284596,660,-24,16820,-175,122,-219
825286309,1416,-52,16764,-237,160,-332
825288056,1088,108,17048,-255,249,-125
825289767,1240,-116,16032,-143,-1,-253
825291475,1804,152,16040,-235,82,-262
825293242,1904,368,16756,-339,121,-272
825295075,1216,108,17552,-182,124,-185
825296883,1672,-56,15764,-152,13,-178
825298613,1264,-88,16252,-202,1,-251
825300301,468,260,16892,-305,124,-253
825302003,-100,296,16776,-187,226,-190
825303702,956,160,15144,-200,268,-143
825305462,368,112,16484,-264,321,-171
825307162,1116,716,15552,-287,493,-145
825308865,812,108,16924,-143,269,-80
825310555,1068,484,16224,-93,250,-57
825312255,1580,-140,16196,-184,412,-42
825313956,880,84,17468,-215,286,-75
825315650,604,280,17636,-163,291,-5
825317339,1100,188,17120,-177,162,63
825319117,1392,-708,18240,-181,181,32
825320881,2096,36,16888,-238,219,-103
825322624,1684,-308,17072,-190,171,-54
825324366,832,240,16880,-128,124,-43
825326122,1288,-788,15784,-125,142,-34
825327824,940,-168,16312,-229,92,-180
825329529,416,-372,15824,-194,276,-247
825331238,552,772,15772,-110,183,-26
825332946,272,-384,17260,-19,123,-45
825334667,472,404,15520,-173,436,-90
825336405,252,180,16588,-194,424,-25
825338081,-44,436,17228,-80,251,33
825339732,824,-4,16900,-42,314,34
825341383,1212,268,17060,-78,323,34
825343019,904,-24,17140,-115,321,57
825344651,1288,292,16628,-113,45,81
825346336,1632,-8,17096,-94,170,105
825348051,2020,56,16588,-67,283,28
825349757,1328,116,16940,-128,40,149
825351466,432,224,17756,-73,-42,102
825353172,1180,24,16272,-14,105,180
825354872,752,100,16184,1,-68,169
825356636,-220,-176,16540,-78,58,100
825358352,-204,276,16024,-97,73,144
825360090,56,0,17308,35,135,181
825361824,356,376,16184,-40,181,190
825363552,288,-496,17288,-67,275,98
825365367,592,-164,16564,45,230,34
825367259,1004,-612,16664,69,149,72
825368971,1456,-316,16488,-64,249,19
825370650,1384,-276,16992,-79,139,-36
825372331,1360,-356,17816,-48,-32,-71
825374011,2592,-568,17216,3,-104,-91
825375686,1524,128,16656,-57,-106,-160
825377437,184,36,17404,-39,-227,-183
825379239,824,60,16080,-32,-174,-176
825380985,160,-64,16944,124,-303,-274
825382700,-684,120,16464,-11,23,-177
825384412,-416,460,16020,-23,40,-251
825386178,-432,456,16736,24,-50,-201
825387974,1008,-172,16304,77,184,-104
825389744,988,228,15000,70,211,-111
825391429,664,112,16788,-54,-15,-145
825393113,1144,12,16284,-54,111,-140
825394795,1904,-224,16804,179,99,-190
825396474,1492,-140,17552,54,-82,-182
825398154,1808,76,16404,-76,-94,-176
825399852,1260,-404,17584,-6,-164,-227
825401564,1264,-236,17420,119,-169,-208
825403280,1908,176,16328,35,-159,-174
825404990,168,272,16420,-98,-125,-147
825406699,700,-96,15808,-48,41,-153
825408437,1128,236,15020,154,12,-123
825410152,500,328,16516,160,40,-105
825411872,480,208,15020,27,285,-55
825413589,508,-28,16092,122,61,-75
825415301,1472,-852,16712,230,133,-31
825417020,1976,-352,16000,154,210,-33
825418811,868,120,17076,76,203,-101
825420565,1344,-232,18036,67,123,-134
825422806,2684,-288,16312,228,169,-114
825424496,2032,-248,16348,248,-10,-179
825426201,1960,156,15772,118,37,-162
825427892,1380,-236,17232,3,-132,-183
825429562,1224,8,17732,287,8,-157
825431241,1764,264,15988,294,-8,-134
825432906,280,260,16648,119,-57,-67
825434565,396,44,15356,28,175,-54
825436230,-404,488,16988,151,79,-12
825437897,-12,416,16772,322,121,85
825439567,668,736,14936,184,300,132
825441234,-200,788,16340,104,390,166
825442896,1368,460,15836,158,290,284
825444558,1408,32,16084,260,181,298
825446223,1752,96,15764,244,448,297
825447886,1072,252,16548,179,292,290
825449607,500,280,18732,161,-28,302
825451307,1596,-880,17892,334,159,286
825453026,1828,-976,16892,336,156,234
825454738,980,-1296,16480,217,118,136
825456449,992,-560,16636,92,8,29
825458155,1288,-492,17848,147,53,45
825459885,1920,-460,15752,239,125,3
825461607,592,-228,16012,119,-68,-123
825463329,-296,248,16920,84,2,-149
825465067,672,-392,15708,182,192,-109
825466839,76,-72,16548,266,135,-216
825468581,-260,100,16340,124,243,-263
825470381,640,276,16264,34,276,-299
825472063,984,336,17752,156,241,-249
825473725,1704,136,16052,204,128,-311
825475388,1036,116,16508,83,54,-401
825477049,572,396,16956,113,118,-412
825478713,1648,252,16624,132,-76,-250
825480420,1364,-56,16832,149,-146,-364
825482115,916,236,16600,-1,-105,-379
825483826,1040,636,16024,-77,-169,-334
825485533,208,992,17156,-10,-243,-274
825487240,412,-96,16604,29,-92,-278
825488949,600,752,16288,4,-65,-265
825490680,-392,348,16412,-80,-24,-288
825492391,248,292,16108,-45,12,-200
825494111,456,348,16440,117,115,-164
825495884,944,204,15508,128,241,-179
825497704,448,132,16012,-49,97,-137
825499478,-56,308,17328,-6,123,-82
825501293,872,-492,16716,174,264,-74
825502982,1408,-400,16532,137,133,-128
825504654,1224,-212,17584,-37,152,-186
825506333,1788,-28,16912,-2,123,-158
825508042,2332,-352,17480,172,-154,-140
825509716,2920,-1028,15632,177,-31,-221
825511455,1452,-296,16756,2,-99,-313
825513171,392,64,18244,89,-50,-251
825514899,2028,-376,16036,145,-77,-237
825516612,804,-392,16780,134,-92,-325
825518324,744,96,15676,20,337,-350
825520056,1340,164,15072,101,167,-227
825521839,432,460,17060,166,104,-160
825523584,1472,60,14916,186,262,-141
825525264,700,496,16140,81,242,-161
825526954,1216,696,15132,39,380,-159
825528636,864,364,16176,73,266,2
825530289,472,284,18276,197,384,40
825531995,1456,476,16152,101,329,14
825533674,1060,80,17460,43,203,28
825535349,1352,360,17176,55,393,170
825537035,1900,-156,16320,172,151,180
825538715,1656,-372,16904,124,109,122
825540400,2116,-152,15920,-22,142,112
825542143,1368,-396,16952,35,128,125
825543845,1156,-132,16536,47,17,162
825545565,692,-616,16352,48,-54,-2
825547291,72,-304,16612,35,177,-149
825549005,-216,460,16644,85,-7,-192
825550715,888,1120,16540,-59,94,118
825552424,664,128,16856,138,200,-68
825554134,816,764,15688,63,190,-174
825555848,-304,-248,15840,-13,207,-156
825557581,84,-64,16324,-96,241,-78
825559305,776,-68,16856,55,180,-150
825561015,884,360,17340,-73,33,-151
825562745,940,684,17196,-153,-34,-127
825564549,824,-76,17664,-94,-160,-93
825566346,1408,-620,16544,-34,-12,-157
825568085,1340,312,16720,-211,-268,-218
825569796,528,232,16868,-305,-239,-200
825571503,588,588,17224,-267,-110,-144
825573281,1424,-104,15848,-149,-307,-231
825574978,1032,-36,15840,-290,-309,-352
825576670,152,648,15600,-376,-142,-305
825578355,252,436,16648,-199,-122,-255
825580070,700,-172,16028,-170,-124,-214
825581765,868,-76,15512,-201,-111,-288
825583505,88,644,16968,-310,25,-250
825585216,504,988,17760,-248,-6,-115
825586937,1900,300,16076,-198,-90,-96
825588655,1528,-88,16888,-218,-39,-133
825590379,1204,604,16160,-240,-43,-112
825592100,820,428,17612,-264,-263,-27
825594998,2540,-728,15748,-113,-149,-28
825596748,2284,-284,15872,-133,-40,-56
825598462,2144,-176,15588,-294,-164,-52
825600160,1516,-140,17176,-284,-229,50
825601853,1296,-732,17108,-139,-133,-40
825603546,2128,-632,15252,-156,-241,-130
825605241,568,8,17356,-294,-22,-197
825606924,1000,276,16212,-164,180,-154
825608606,1204,-52,17208,-88,55,-103
825610287,2096,-316,15284,-16,166,-259
825611974,1456,-76,14792,-181,330,-299
825613683,692,436,16704,-186,390,-206
825615371,2032,60,15928,-126,227,-130
825617078,1592,212,16892,-63,98,-179
825618785,612,476,17376,-128,242,-151
825620484,1096,212,16492,-119,109,-128
825622312,992,408,18248,-21,-87,-111
825624126,2236,736,16628,-161,166,44
825625841,1480,284,16336,-93,36,-70
825627555,320,300,16504,-147,90,-66
825629233,1620,-96,15204,-278,59,77
825630901,1008,-420,16636,-127,21,37
825632566,1268,-124,15416,-48,98,-29
825634288,476,100,15844,-202,25,-6
825636043,120,428,16828,-246,193,53
825637859,252,-40,16928,12,160,-30
825639667,412,216,15456,-58,188,-22
825641392,68,224,16476,-143,256,-25
825643083,540,284,16556,-150,259,41
825644773,1172,-340,16884,-103,60,12
825646489,1316,0,16644,-105,81,-19
825648250,1076,-52,17044,-231,141,20
825649941,1504,8,16600,-118,-74,6
825651640,1400,-812,17448,-121,-169,-122
825653321,1696,-600,16380,-178,-84,-108
825655005,192,-544,16928,-139,-30,-184
825656705,688,-28,15908,-284,-34,-216
825658425,652,-28,16968,-305,-46,-222
825660164,1320,-192,16632,-181,79,-304
825661883,252,8,16780,-123,17,-364
825663589,664,-20,15100,-241,20,-426
825665363,-100,64,16068,-291,95,-419
825667098,80,460,17156,-146,261,-408
825668776,344,-28,15800,-142,191,-413
825670451,168,480,16324,-239,152,-409
825672123,1280,248,16704,-292,187,-334
825673791,1452,72,17368,-212,-105,-225
825675473,1308,56,16624,-176,47,-269
825677187,1496,188,15996,-247,-78,-281
825678902,1020,-64,17648,-312,-118,-267
825680615,972,672,17644,-280,-86,-230
825682329,1168,640,17456,-250,-203,-138
825684071,900,584,16212,-207,-139,-94
825685792,1092,-116,15780,-313,-116,-116
825687509,1132,836,16068,-374,-58,-68
825689222,700,452,17076,-285,61,-21
825690933,952,116,15372,-72,39,11
825692643,1048,-160,15524,-223,119,-62
825694348,1528,-12,15664,-266,190,-71
825696119,1424,-300,16524,-95,360,-123
825697842,1296,-744,15904,-102,134,-66
825699555,1640,-792,16600,-261,213,-206
825701264,2676,-340,15948,-312,321,-238
825702972,1984,-612,17812,-228,230,-137
825704679,1788,-176,16908,-121,118,-223
825706431,2108,-380,16480,-161,181,-259
825708145,2180,-352,16884,-255,222,-295
825709851,1780,104,16244,-158,194,-262
825711562,1496,284,16176,-164,9,-163
825713277,1500,88,15600,-223,248,-147
825714995,1796,688,15100,-234,187,-254
825716782,456,872,17648,-249,128,-18
825718466,292,608,16988,-100,177,56
825720130,780,32,15216,-71,261,44
825721857,436,-388,16304,-170,317,-65
825723641,156,212,16380,-252,532,-37
825725450,788,-192,15856,-54,490,83
825727226,1216,-48,16272,-44,549,86
825728938,2024,-84,15992,-156,261,-19
825730629,1624,64,17160,-272,318,68
825732354,656,84,18528,-27,154,22
825734093,1880,0,16816,-95,111,-10
825735783,864,-232,17756,-225,47,-31
825737502,576,264,16896,-165,305,-54
825739183,444,404,17956,-114,84,44
825740875,832,-40,15732,-146,14,47
825742560,880,-528,15716,-198,286,-62
825744250,-200,168,16928,-210,229,-60
825745938,32,-56,16140,-189,161,-51
825747678,696,-344,16200,-165,241,-59
825749427,828,-668,16428,-55,376,-199
825751140,440,-632,16556,-101,257,-248
825752852,516,-204,16320,-137,181,-314
825754611,968,-492,16328,-247,366,-196
825756325,892,-220,17484,-143,281,-393
825758060,988,-288,17200,-211,197,-436
825759772,692,288,18044,-266,85,-404
825761537,1120,284,16896,-113,217,-331
825763289,932,240,15516,-122,27,-377
825765114,-420,548,16500,-208,64,-397
825767776,-24,1160,16508,-203,125,-234
825769523,692,612,16640,-94,30,-111
825771191,424,1036,16956,-124,-87,-64
825772861,-100,356,16684,-215,133,0
825774530,644,-8,15488,-136,85,47
825776201,0,228,16740,-149,39,89
825777871,1076,-176,16024,-170,120,120
825779586,856,-400,16252,-131,238,77
825781315,1308,-460,16256,-176,18,24
825783039,1900,-604,16068,-205,68,11
825784750,2256,-588,16308,-213,144,-88
825786457,1228,-944,17572,-170,163,-162
825788223,2056,-700,16148,-226,47,-213
825789960,1356,-712,17296,-219,23,-285
825791668,1600,-300,16760,-144,254,-299
825793387,1020,80,16376,-151,41,-331
825795102,988,-296,16628,-180,-53,-385
825796810,1292,84,16408,-191,165,-383
825798519,1492,616,15736,-99,184,-293
825800258,524,976,16516,-165,-21,-205
825801968,924,1184,15968,-186,139,-200
825803692,1300,756,16720,-49,102,-146
825805415,1520,640,17216,8,114,-16
825807128,1032,376,16656,-4,100,1
825808842,844,-8,17116,-20,101,21
825810584,1544,-660,17176,17,165,14
825812326,2364,-240,15252,-32,239,39
825814058,944,-384,17760,-77,200,44
825815774,1352,-352,16440,-60,311,-14
825817481,2660,-940,15304,30,151,-140
825819193,1948,-1016,16552,81,199,-229
825820984,1496,-748,15840,120,241,-318
825822660,1316,1132,16360,-132,161,-69
825824319,1072,516,18052,58,175,-154
825826031,296,228,16716,153,97,-189
825827781,-12,208,17624,91,189,-22
825829564,272,220,16500,25,215,9
825831256,900,92,16216,103,100,-51
825832916,168,884,17608,143,153,59
825834577,752,500,16080,211,205,221
825836234,604,64,16656,112,-96,240
825837889,1328,0,15860,97,27,193
825839542,1824,-496,16196,200,-30,184
825841198,996,-192,17436,169,-47,214
825842915,1420,-380,15820,149,-21,198
825844607,632,-844,17524,154,-45,118
825846319,616,-1172,17428,268,48,-21
825848159,804,-660,15492,214,151,-90
825849868,-264,-516,17292,138,52,-105
825851580,188,-796,15648,96,306,-183
825853313,660,-316,16392,124,49,-241
825855019,124,776,17104,114,97,-199
825856727,1040,580,15804,109,238,-128
825858435,136,324,17096,88,-90,-68
825860143,208,420,17120,135,-41,-182
825861937,612,832,16380,107,90,-65
825863807,-148,1124,16696,114,63,15
825865575,456,260,16832,46,-119,62
825867325,1388,-140,16824,77,-176,14
825869027,1032,116,17076,135,-142,-85
825870707,480,492,16720,124,-182,-30
825872391,728,-172,17108,102,-295,11
825874102,1348,-848,16616,123,-212,-184
825875782,2136,40,15912,59,-157,-81
825877466,1004,264,16320,93,-300,-175
825879150,704,-8,16780,2,-126,-89
825880830,1368,-188,15944,-6,-44,-89
825882512,952,-532,16728,46,-90,-187
825884263,324,592,16260,18,-13,-146
825885962,880,300,16308,15,128,-25
825887711,1228,-200,16504,71,123,-19
825889422,1644,64,16172,97,-2,-127
825891127,1020,216,16956,45,43,-119
825892833,1672,212,15984,50,130,-50
825894565,1496,-92,16632,100,-68,-97
825896278,1252,-520,16584,100,3,-177
825897987,1128,180,16868,65,188,-133
825899702,1104,332,16560,60,62,-113
825901410,1720,-96,16644,38,48,-91
825903115,2112,-100,15776,77,95,-139
825904825,1640,-60,16592,125,192,-155
825906532,1376,468,15812,52,67,-79
825908240,892,224,16528,68,24,-80
825909951,880,-280,16664,193,130,-78
825911664,1424,20,15532,194,148,-41
825913413,544,452,16952,104,133,1
825915175,976,-136,16712,91,326,103
825916887,1972,-144,16096,225,205,69
825918568,1792,-392,16528,241,196,16
825920280,1592,228,16012,107,265,97
825921987,900,92,17116,144,197,112
825923672,1964,-524,16516,200,278,88
825925375,2040,-348,16292,164,166,-79
825927083,1064,148,16948,167,198,-90
825928759,1600,72,16100,176,270,-24
825930438,1652,-592,16956,204,88,-102
825932112,1192,-980,16436,196,205,-320
825933768,928,-452,15580,150,304,-361
825935485,-328,84,16900,187,283,-302
825937152,520,-248,16432,200,267,-240
825939696,1584,-156,15240,238,392,-377
825941406,540,-196,16816,276,111,-488
825943092,152,1400,17100,-15,320,-127
825944766,1040,972,16132,206,352,-216
825946445,-268,828,18464,209,122,-206
825948132,296,660,17376,71,161,-178
825949823,392,332,16588,137,-30,-161
825951514,684,260,16328,224,170,-157
825953208,1220,-796,15508,197,125,-140
825954899,104,-252,16640,-26,47,-177
825956658,-232,-180,16664,-57,74,-236
825958366,52,796,16904,110,79,-150
825960078,804,64,16968,151,-77,-109
825961793,456,-488,16512,29,9,-226
825963508,492,64,16028,-20,156,-220
825965222,304,232,17384,72,-153,-169
825966964,840,376,16904,55,-102,-74
825968721,1596,768,16492,-40,109,-35
825970422,628,408,17456,-54,-87,-28
825972086,1164,436,16364,-13,-207,-21
825973748,1520,-124,15508,66,-106,7
825975411,1224,-76,16276,50,80,-18
825977133,1488,-308,15348,-18,-63,-35
825978820,1224,-356,16364,37,-110,-132
825980558,1984,-168,16000,61,104,-114
825982316,2000,-420,15824,79,21,-123
825984204,1160,-516,16328,-57,51,-200
825986051,1340,0,16636,-106,87,-175
825987889,1956,-356,16072,50,162,-184
825989585,1720,-20,16516,43,144,-217
825991281,1492,364,16088,-99,151,-213
825992966,1516,696,16904,-48,133,-163
825994638,1824,-188,17528,93,16,-166
825996314,2088,380,16276,47,-8,-157
825998047,1040,220,16548,-139,197,-138
825999747,1120,628,16592,-86,74,-103
826001459,1408,492,17108,-48,22,-77
826003168,1552,284,16676,32,109,-149
826004875,1300,92,15672,6,289,-65
826006586,1200,340,16564,5,27,-56
826008319,1892,-472,16112,41,185,-6
826010025,1940,-148,15016,31,233,-77
826011738,436,172,16632,-65,207,-84
826013454,536,120,15772,-91,204,-46
826015189,996,236,17012,-55,197,-28
826016982,1180,-64,17300,77,210,-52
826018823,800,4,16508,-56,199,-74
826020516,316,184,17244,-114,82,-81
826022198,1476,-204,17132,-59,284,41
826023878,2060,-32,16424,-10,90,-31
826025566,608,104,16968,-141,-38,-98
826027254,476,-204,15656,-147,129,-120
826029008,652,60,15924,-84,108,-48
826030724,160,-408,17064,-44,-52,-139
826032414,776,-248,15404,-74,77,-183
826034076,-512,-128,17208,-65,130,-266
826035735,580,-292,16836,-120,179,-231
826037393,836,-604,16784,-90,86,-300
826039101,428,204,17280,-118,226,-331
826040758,232,380,17072,-118,62,-336
826042436,8,788,16736,-171,-78,-309
826044124,636,508,17664,-179,-1,-210
826045813,512,588,16976,-60,16,-154
826047526,280,228,16808,-120,-218,-144
826049281,528,340,16352,-207,-202,-141
826050988,988,144,16416,-247,-85,-91
826052705,548,216,16908,-178,-221,10
826054418,792,168,16152,-178,-194,-1
826056131,616,408,15848,-331,-315,-29
826057841,304,16,17504,-247,-167,-48
826059576,1084,-344,16468,-163,-81,-148
826061302,268,-260,16564,-181,-117,-192
826063121,1260,-312,15684,-267,69,-231
826064866,1724,-472,15756,-292,73,-291
826066634,1112,364,17216,-232,-80,-236
826068474,1124,268,17140,-176,23,-208
826070318,1784,-132,16312,-199,-64,-254
826072079,1264,424,17452,-304,-112,-330
826073839,1204,140,17436,-246,-37,-264
826075691,1100,-32,16348,-93,-82,-229
826077407,1264,240,15676,-244,-151,-244
826079084,1184,-76,16332,-232,-108,-305
826080827,1480,484,16708,-252,-54,-181
826082512,-380,-396,17144,-146,-245,-128
826084201,2280,300,14548,-148,-68,-126
826085911,1644,600,16176,-346,52,-115
826087608,1740,184,17156,-241,106,-91
826089296,952,-112,17048,-156,32,-132
826091045,1392,256,15612,-159,12,-160
826092748,1764,-236,16448,-246,195,-139
826094458,1500,-500,16444,-211,136,-127
826096177,844,-216,16864,-161,79,-157
826097893,940,-32,16044,-192,192,-202
826099604,1244,72,16384,-265,271,-151
826101316,1168,268,17176,-236,105,-134
826103050,1244,8,16664,-192,165,-151
826104770,1280,380,16164,-165,97,-67
826106482,704,520,17756,-226,13,-16
826108193,2008,-44,16504,-225,19,-2
826109902,280,88,16668,-135,24,-43
826112496,888,128,16332,-223,54,6
826114293,1712,124,17040,-248,173,6
826116126,1384,168,16720,-193,168,48
826117900,732,88,17080,-21,39,7
826119627,1212,-312,15508,-183,205,-74
826121329,1580,-424,16128,-195,326,-28
826123026,480,-376,17152,-109,272,-32
826124806,204,-188,16704,-69,177,-109
826126500,944,152,15932,-202,321,-56
826128188,1008,-284,16528,-192,361,-96
826129890,1284,128,16472,-139,233,-5
826131586,200,72,17416,-83,161,-16
826133273,644,88,16984,-187,164,9
826134961,1280,160,16172,-189,199,13
826136649,1088,-4,17228,-165,94,81
826138339,896,-412,16672,-83,4,83
826140062,592,156,15784,-119,-32,97
826141756,520,-588,17456,-333,100,-28
826143448,700,404,17484,-300,75,-42
826145203,496,-24,16596,-49,85,-51
826146910,840,-544,15420,-53,109,-91
826148620,732,-844,16232,-233,21,-283
826150328,-12,176,16700,-230,128,-257
826152060,348,-40,16632,-134,222,-182
826153770,608,280,15536,-137,94,-168
826155506,736,164,16724,-256,34,-276
826157217,764,684,17692,-103,59,-247
826158924,1736,1260,17072,-135,63,-77
826160637,536,-56,16504,-73,-231,-22
826162356,588,84,16332,-310,65,-83
826164094,844,900,16900,-348,64,6
826165917,444,-84,18012,-223,27,165
826167632,1508,0,15464,-136,-17,42
826169313,1648,-260,15436,-319,153,-33
826171044,1692,188,16916,-364,83,29
826172794,1104,-576,17620,-158,45,-13
826174490,1088,-144,14988,-103,214,-153
826176183,1496,-812,16152,-283,286,-217
826177861,1876,-116,16208,-348,228,-197
826179524,1420,-412,17980,-200,188,-201
826181187,1736,152,15832,-162,202,-185
826182852,1720,-148,15632,-256,228,-223
826184514,1324,368,17284,-338,103,-217
826186229,1116,192,17696,-237,190,-95
826187927,300,724,17420,-124,127,-100
826189636,1876,212,15112,-212,216,-46
826191347,2064,572,15432,-293,101,-22
826193055,260,160,17228,-164,180,63
826194772,1024,28,16188,-102,82,80
826196484,1216,268,16104,-265,99,49
826198192,2016,152,16676,-329,335,3
826199897,1700,-120,17136,-271,233,29
826201647,732,184,17304,-140,45,-2
826203358,892,-356,16328,-225,423,-76
826205064,2172,-400,15848,-203,434,0
826206793,692,-672,17048,-159,341,-16
826208503,900,-340,14960,-136,401,-9
826210212,320,236,16808,-297,467,33
826211935,644,304,16328,-265,555,42
826213730,1520,16,16460,-177,350,72
826215539,272,524,18508,-127,213,124
826217380,1092,164,16684,-165,482,84
826219085,2496,-56,15624,-158,397,112
826220771,408,72,19304,-132,225,143
826222445,1484,-572,16256,60,330,-2
826224127,2340,152,15492,-139,111,73
826225800,2160,260,16560,-229,218,278
826227522,2072,-652,15288,-50,168,110
826229233,220,-304,17108,-44,129,79
826231007,236,-116,17208,-134,177,34
826232744,640,-488,16352,-124,0,25
826234463,-52,-60,17404,-87,258,-7
826236194,72,100,16620,-86,378,-19
826237993,1180,184,15404,-169,319,-46
826239691,-368,628,17824,-142,246,-46
826241377,908,796,17076,-2,406,76
826243056,1332,556,17372,12,53,79
826244744,1280,-200,17440,-40,55,95
826246425,1776,-8,16720,24,-7,38
826248105,876,-84,17172,31,-218,153
826249806,2076,-776,15052,-39,-14,87
826251514,1064,-420,16844,-135,-252,-6
826253220,364,92,18024,43,-152,17
826254929,192,-592,15900,33,8,-38
826256638,-224,-136,16404,-15,-5,-69
826258369,-616,-380,16004,-5,200,-183
826260078,416,-336,15284,102,226,-112
826261803,212,0,17040,53,163,-62
826263523,-76,588,16892,-113,311,-56
826265286,1780,228,16576,-12,213,-6
826267046,2540,52,16896,109,-63,3
826268850,1096,112,17416,29,-92,50
826270564,1600,372,16332,-23,-12,112
826272298,1172,300,16936,16,-317,113
826273995,1496,-432,17520,58,-259,176
826275657,1560,-160,17304,48,-348,141
826277323,596,-204,16504,31,-327,32
826279049,244,-36,17092,-18,-288,13
826280722,976,-376,16372,74,-240,1
826282404,696,-588,15732,108,93,-115
826285110,-296,-60,16828,-2,150,-172
826286876,1916,-820,15744,102,207,-172
826288570,1208,-708,16544,161,211,-248
826290261,1604,-156,15992,23,224,-282
826291963,1240,456,17252,-102,5,-197
826293709,1728,-12,16628,4,143,-158
826295409,2244,92,16508,185,46,-122
826297104,1084,552,17364,-52,-227,-110
826298800,784,956,17792,-91,57,-57
826300560,964,400,17724,70,-90,11
826302264,816,184,17336,191,-201,-22
826303975,1612,184,15228,20,43,-56
826305713,784,292,16208,27,-5,10
826307421,1176,16,15876,89,133,14
826309133,1736,-544,14744,197,15,-45
826310868,1020,-608,16356,115,178,-108
826312580,1232,-88,15088,108,348,-77
826314362,932,-340,16360,134,196,-8
826316170,1376,-632,16660,125,369,-70
826317940,1800,-84,15952,141,362,-107
826319690,660,584,17288,88,87,-17
826321528,1528,596,16044,56,194,111
826323206,824,-56,17532,122,130,105
826324966,828,-300,17456,136,24,53
826326747,652,812,16720,72,10,171
826328454,652,128,17032,85,123,206
826330147,752,-84,16092,180,93,238
826331840,744,-392,16524,339,-209,24
826333537,1520,-196,15852,348,-69,-8
826335238,1364,-516,16144,51,121,283
826336969,544,-200,16800,187,-4,40
826338678,1280,-464,16548,145,86,18
826340373,760,40,17252,149,91,-7
826342152,548,-244,16520,219,209,40
826343851,792,-60,16276,172,83,-55
826345581,1028,-20,17380,223,22,-16
826347291,832,460,15608,275,167,62
826348987,348,12,16408,152,14,140
826350685,128,488,17000,0,50,136
826352449,552,360,17192,26,13,123
826354153,508,624,17636,283,15,247
826355864,1116,304,15812,199,3,247
826357573,744,124,15796,-27,26,163
826359280,784,60,16372,49,209,184
826360986,1736,-300,16736,267,-53,207
826362781,1456,-512,16304,117,13,30
826364495,1888,-288,15968,6,140,9
826366203,1204,-220,16932,32,-64,-9
826367924,1364,-628,16852,198,12,-43
826369632,1392,-24,15456,76,130,-145
826371330,488,36,16600,17,55,-154
826373188,676,704,16672,40,120,-69
826374900,1688,128,16240,110,48,43
826376552,1092,524,16332,66,30,-49
826378204,1348,888,15272,-10,103,-9
826379855,224,824,17684,5,-69,144
826381502,1076,88,16936,140,144,187
826383150,916,240,17008,169,59,145
826384801,1216,236,16684,68,131,43
826386493,1824,-320,15040,58,212,102
826388243,704,-552,17652,78,207,61
826389977,1952,-628,15372,209,254,-47
826391690,2436,-520,15468,90,147,-133
826393402,1160,4,16536,6,183,-100
826395110,1852,-448,16220,8,210,-124
826396819,1396,-216,17316,113,1,-197
826398528,1536,32,17256,66,156,-225
826400238,936,320,16940,29,98,-201
826401946,572,152,16904,68,174,-143
826403652,1100,104,15924,60,104,-142
826405391,700,960,15872,69,171,-116
826407104,596,856,15928,87,332,3
826408813,356,376,15804,152,82,36
826410520,40,-12,17524,215,-1,-151
826412324,436,-980,16672,132,379,17
826414121,676,580,16908,252,203,18
826415971,308,316,16932,136,290,126
826417782,1144,-148,16796,35,205,130
826419495,1080,-248,18080,212,101,47
826421221,2808,-556,15736,203,167,-14
826422966,1468,-576,17260,49,-38,50
826424699,736,-596,17996,17,28,35
826426475,1076,28,16844,121,-24,-26
826428161,1196,-172,17432,122,-110,-53
826429840,1048,-52,15748,-48,122,-21
826431531,944,-220,15476,-6,-84,-25
826433220,384,540,16376,46,-16,14
826434898,1576,48,14412,55,117,4
826436639,-1004,392,15400,-65,292,27
826438329,-1180,216,17628,-57,209,77
826440050,-432,568,16920,11,47,148
826441746,236,224,17420,137,334,191
826443438,1264,216,17096,62,452,175
826445135,-156,-192,18800,-18,49,144
826446889,1500,124,17160,-36,-17,118
826448594,2720,-488,17232,18,229,142
826450304,2076,504,17836,-97,-267,83
826452045,2220,168,15780,-203,-182,71
826453754,1872,824,17672,-208,-229,77
826455462,900,-208,17748,9,-351,125
826457988,596,8,14840,-132,-161,-2
826459707,-32,72,15600,-311,-36,16
826461422,604,272,16388,-206,44,60
826463134,1184,-400,15608,-111,107,-11
826464855,900,468,15492,-172,-11,-42
826466577,-52,416,17720,-203,145,-25
826468295,1812,-184,15828,-137,220,-7
826469980,1032,-288,17264,-102,81,-77
826471649,1484,16,16820,-168,117,-141
826473387,1752,44,16248,-254,183,-139
826475118,1012,616,19092,-259,-97,-112
826476802,2220,-620,17396,-121,-197,-169
826478478,2420,548,15356,-238,-150,-176
826480145,1256,-120,16568,-320,-26,-124
826481808,948,520,15680,-285,-373,-165
826483469,556,-288,16908,-197,-157,-111
826485132,1796,-456,14804,-134,10,-179
826486795,184,-100,15292,-217,-95,-233
826488506,-644,572,16648,-241,143,-189
826490198,596,-500,16500,-138,249,-102
826491905,292,-128,17408,-116,-35,-160
826493614,384,152,16024,-234,384,-220
826495326,1216,424,16184,-220,262,-175
826497033,1420,416,17892,-171,255,-130
826498766,3060,-660,16192,-62,122,-190
826500477,1984,-236,16332,-176,3,-169
826502184,412,456,18544,-221,-183,-104
826503890,2724,-324,15492,-254,-170,-69
826505597,1060,-364,18400,-187,-229,-149
826507302,728,248,16336,-227,44,-136
826509031,-20,504,17048,-253,-224,-80
826510742,-228,704,17260,-237,-68,4
826512456,984,-448,15072,-91,155,-5
826514194,140,388,15020,-98,22,24
826516049,-916,752,17808,-200,132,53
826517847,424,664,15992,-215,32,117
826519669,276,-256,18592,-13,207,116
826521362,1736,-96,16168,24,196,2
826523037,2120,-504,15856,-235,191,79
826524721,792,-60,17604,-193,187,41
826526396,2476,-752,16644,-95,102,62
826528072,2472,-384,16512,-176,-153,15
826529791,2132,-640,16420,-237,36,-47
826531533,1692,88,16668,-217,-306,-18
826533285,492,-188,18468,-224,-267,-22
826535013,512,272,16660,-187,48,-112
826536731,-844,4,17156,-210,-69,-69
826538442,-1144,1100,16784,-166,-46,-53
826540239,548,-440,15928,-130,189,-41
826541936,232,48,17408,-118,53,-41
826543624,-144,-64,16556,-74,303,-87
826545304,864,356,15232,-176,70,-46
826546987,1304,-412,17880,-203,169,-20
826548669,2436,-208,16564,-124,287,-29
826550405,1500,-28,17116,-139,34,-37
826552111,1620,580,17112,-255,-172,-30
826553823,2488,-292,16344,-264,91,-13
826555534,2384,-152,16484,-105,-104,-49
826557244,1028,-156,17124,-222,-137,-160
826558952,1192,436,15348,-370,-55,-137
826560665,904,320,17060,-353,110,-55
826562388,1400,124,15692,-142,-114,-134
826564109,20,-408,16696,-198,-29,-147
826565847,-28,312,15488,-284,-15,-123
826567592,792,-464,16652,-274,132,-113
826569317,852,224,16552,-189,100,-166
826571032,800,-36,16316,-209,263,-132
826572741,732,-160,16160,-236,200,-128
826574408,1592,-20,16892,-316,306,-173
826576120,2108,308,16380,-212,55,-200
826577810,1604,-132,16320,-204,263,-218
826579458,1716,100,15724,-216,139,-218
826581107,1792,-604,17608,-298,-59,-239
826582815,2452,-112,16736,-241,6,-255
826584488,1540,-188,16288,-137,187,-283
826586179,624,44,16580,-160,-142,-270
826587868,936,-168,16584,-142,29,-332
826589565,1072,-184,16924,-207,-57,-345
826591255,-1000,-1112,17320,-214,176,-162
826593003,128,544,14600,-200,127,-219
826594725,760,884,15888,-310,282,-79
826596445,1740,408,16316,-215,396,7
826598156,1084,324,16036,-102,252,-27
826599865,328,412,17400,-172,143,10
826601574,1388,580,15812,-278,322,88
826603308,1516,-580,17800,-94,192,73
826605020,964,-36,17364,-133,233,39
826606727,836,-12,17432,-173,88,55
826608434,820,124,17956,-200,193,104
826610140,2244,-268,16208,-89,175,116
826611862,1604,68,15560,-155,81,32
826613582,1136,-392,16980,-202,251,85
826615334,1584,332,14972,-167,138,90
826617097,876,-584,17688,-130,16,27
826618837,836,-532,16272,-172,303,13
826620549,80,-228,16668,-130,259,-21
826622244,480,16,15548,-148,269,-5
826624078,1300,-672,16072,-143,309,-4
826625762,932,-36,15648,-92,454,-7
826627432,456,-288,17208,-83,387,-27
826629649,1140,380,15800,-166,228,-2
826631324,2200,-320,16656,-176,284,-28
826633025,1068,-8,17268,-141,176,-6
826634721,160,208,17936,-271,67,-27
826636411,1156,376,16176,-320,113,-51
826638122,1144,124,18216,-163,132,-24
826639816,1180,-100,16600,-130,119,-12
826641499,608,-344,18224,-138,-65,-55
826643176,920,196,16876,-225,217,-9
826644864,1336,88,15412,-82,78,0
826646618,156,68,16488,-108,91,4
826648323,36,112,16464,-209,124,31
826650038,688,524,16156,-212,305,140
826651751,1636,248,16576,-77,168,89
826653460,692,-156,16472,-89,165,66
826655167,308,-268,16168,-204,294,7
826656886,840,-8,16284,-204,308,-26
826658605,1500,-204,17240,-158,143,22
826660317,1284,-328,16204,-163,276,-1
826662113,676,-196,17556,-138,134,-68
826663906,756,-20,17968,-233,-75,-98
826665692,1280,-4,17548,-176,93,-129
826667511,916,-324,17164,-131,101,-202
826669205,44,176,17540,-147,-31,-171
826670888,1064,224,16512,-220,72,-124
826672655,1392,500,16400,-146,128,-83
826674494,344,408,16740,-118,-26,-28
826676273,852,272,14764,-174,-46,-62
826678058,-164,364,17720,-227,24,-53
826679740,-600,252,17524,47,101,-16
826681415,400,-104,15568,114,111,-66
826683088,648,844,17024,-198,227,165
826684786,1212,308,16764,-58,357,30
826686474,1452,16,17508,1,197,68
826688208,1072,100,17556,-109,252,163
826689909,1696,-84,16488,-187,130,98
826691627,1932,-52,16780,-40,110,12
826693336,2592,-48,16840,-29,207,36
826695045,2356,-232,16024,-107,-15,64
826696753,988,-656,17216,-77,-29,-8
826698486,552,-104,18016,74,33,24
826700196,1448,-392,16476,69,-117,36
826701905,8,-680,16120,-52,138,-12
826703613,96,-296,16152,-43,426,-85
826705322,-436,4,17908,20,108,-67
826707029,1416,-176,15740,75,266,4
826708804,1728,-100,15564,30,399,-23
826710506,400,-256,17520,56,32,-75
826712221,1848,-8,15172,57,93,-63
826713934,1584,-4,17596,76,172,-18
826715648,668,196,18432,91,103,24
826717391,1516,80,17140,11,113,-10
826719259,1172,496,18728,87,-151,8
826720977,1956,-384,17432,171,-63,119
826722641,1180,84,15556,109,6,86
826724303,220,112,17284,23,-73,70
826725968,664,-204,16416,62,-45,112
826727628,1108,-268,14980,235,73,168
826729336,508,-320,15408,203,166,139
826731078,444,-108,14916,-46,77,104
826732839,-200,-40,16508,-13,158,85
826734563,128,296,17636,192,243,108
826736275,924,232,16436,168,128,98
826737990,316,-384,18064,52,178,17
826739748,1388,-488,17696,215,212,-12
826741487,1892,-368,16692,262,2,41
826743181,1344,-424,16588,184,-35,26
826744866,980,-544,16620,-40,68,-58
826746546,1144,344,17832,85,-154,-55
826748223,1536,324,17968,195,-190,-28
826749909,1784,56,15816,158,-189,-15
826751588,324,-56,16244,90,-130,-86
826753276,-264,-392,16656,77,-249,-74
826754971,304,308,16220,207,-231,-30
826756660,-12,148,14872,98,126,-13
826758352,132,100,16008,4,57,-43
826760090,-68,588,16524,13,-78,-33
826761832,648,396,16980,206,101,43
826763555,708,-144,16500,206,153,21
826765338,892,356,16108,-4,102,-54
826767129,792,40,17356,17,93,-32
826768864,2304,128,16252,178,206,122
826770665,1976,224,17188,114,-159,51
826772360,1256,48,17364,-70,-166,2
826774042,1724,0,16832,-79,-114,19
826775722,1468,-148,17408,328,-259,-80
826777401,1768,452,15696,117,-277,-58
826779078,952,1256,16576,-141,-152,232
826780802,896,432,15800,31,128,57
826782499,1308,252,15248,208,-24,100
826784212,620,36,15420,101,-20,114
826785933,1196,-852,14020,29,339,14
826787655,412,-228,16408,62,169,-41
826789375,1072,-492,16688,161,239,31
826791110,1808,-408,16600,162,209,5
826792818,1768,-120,17452,91,349,-88
826794527,2544,372,17044,59,291,-107
826796248,3468,-600,16684,212,104,-77
826797967,2496,-436,18124,252,104,-88
826799682,3192,-204,15024,99,60,-206
826802529,876,532,16504,16,-44,-119
826804276,1392,236,15872,250,-4,-8
826806002,1284,240,15596,282,133,-23
826807723,1228,-56,14220,89,67,-82
826809443,-292,456,17052,100,88,42
826811170,184,-200,16512,325,330,129
826812915,904,-572,15656,323,212,53
826814627,204,-12,17052,78,392,-36
826816322,1256,504,16460,107,497,72
826818021,1524,-148,18148,222,322,159
826819767,2056,-556,17312,281,233,20
826821519,2104,-204,15744,141,316,-118
826823305,1572,400,17564,68,80,27
826824992,2000,-684,17152,158,183,12
826826675,2560,-392,15312,254,64,-139
826828350,1048,-112,16788,94,41,-147
826830031,800,388,15964,74,56,-140
826831713,1600,-340,15860,174,-76,-36
826833480,364,-20,16832,191,60,-127
826835230,-520,272,16568,97,138,-180
826836962,-500,604,16892,101,38,-123
826838678,404,-196,17060,217,256,-37
826840395,1004,-88,15368,280,331,-140
826842104,388,12,15372,73,205,-150
826843888,-372,436,17076,51,232,-131
826845588,1392,-228,16204,204,420,-95
826847279,1676,200,16136,198,102,-175
826848961,1400,68,16396,105,222,-245
826850640,1012,444,16740,149,65,-248
826852320,1468,504,17100,162,38,-23
826854106,1096,156,17064,107,-56,-171
826855833,1076,124,16636,2,-135,-212
826857552,108,952,18176,-41,-33,-55
826859264,1388,408,16680,64,-73,62
826861016,1976,-48,14736,32,-198,-78
826862822,320,428,16376,-62,-66,-88
826864653,-32,696,15536,-24,125,46
826866403,32,152,15976,83,-85,144
826868101,264,-248,16304,21,149,23
826869791,752,56,15036,-28,219,-5
826871474,-80,-48,17732,-31,167,57
826873166,1228,-208,16708,20,205,93
826874858,968,-568,17340,12,207,58
826876552,1704,-256,16892,-17,226,-73
826878255,1976,168,16392,-110,31,12
826879957,1560,-324,17892,-51,-155,38
826881685,2776,-532,16036,3,10,-17
826883391,2376,-288,16280,-53,-228,-155
826885159,860,108,17328,-171,-161,-102
826886874,1612,-352,16492,-117,-30,-70
826888599,1164,-100,17556,-76,-215,-99
826890320,1452,236,15676,-78,-135,-303
826892064,440,1060,15240,-281,-16,-66
