Time_us,Accel_X,Accel_Y,Accel_Z,Gyro_X,Gyro_Y,Gyro_Z
2077072204,1528,236,17164,114,137,-84
2077074043,1516,588,16396,70,-132,-111
2077075767,1496,152,16768,72,300,-121
2077077511,1132,28,16976,149,155,-158
2077079292,1436,428,15560,103,-297,-198
2077081109,912,76,16184,-61,152,-175
2077082880,1480,-124,15320,5,102,-212
2077084630,1924,668,15404,5,-23,-206
2077086339,1564,320,15656,-21,223,-147
2077088055,1800,508,16552,-96,366,-146
2077089798,2212,-32,16368,-34,323,-252
2077091528,1980,180,16804,-17,299,-262
2077093280,2124,244,17144,-57,275,-231
2077095008,1492,-172,16956,-114,56,-314
2077096689,1668,664,16988,-52,47,-278
2077098357,1804,480,17188,13,-63,-256
2077100112,2280,372,16264,45,63,-165
2077101810,1992,464,16028,-82,-27,-161
2077103510,1552,604,16844,-45,51,-183
2077105214,2580,168,15740,39,423,-46
2077106919,1788,312,16088,111,327,-116
2077108620,860,12,16500,-12,237,-135
2077110350,908,520,16372,-29,280,-66
2077112081,1672,-424,16860,213,462,-16
2077113781,1540,-408,15780,90,375,-92
2077115484,1372,-148,16360,-28,202,-112
2077117184,1328,144,16964,56,514,-94
2077118909,2752,-380,15536,122,595,16
2077120780,1936,376,16920,45,363,-120
2077122517,1608,-192,17532,-10,513,-69
2077124201,1756,204,17232,66,394,-103
2077125883,1952,368,17296,38,371,-6
2077127558,1368,-172,17000,-70,140,-74
2077129226,1652,-108,16860,-136,21,-56
2077130991,228,164,17832,-34,202,-151
2077132688,1332,136,15544,-70,123,-102
2077134398,288,-108,16628,-49,221,-117
2077136153,1040,468,15420,-99,189,-135
2077137953,52,356,16492,-61,309,-212
2077139723,652,688,16540,-51,482,-154
2077141532,572,648,17104,-7,544,-155
2077143239,916,1068,17096,-80,334,-124
2077144985,536,916,17696,-60,364,-98
2077146688,1404,944,17352,20,354,6
2077148437,1196,-32,17108,-78,-49,18
2077150208,976,88,17064,-164,-151,-27
2077151994,600,680,16760,-240,-106,25
2077153736,1128,-404,16900,-141,-111,123
2077155449,844,-364,16640,-188,-273,21
2077157154,992,-228,15664,-273,-332,-49
2077158854,476,124,16200,-332,-109,-5
2077160556,1004,-260,16208,-222,39,-58
2077162338,732,-24,16212,-239,8,-148
2077164119,868,-140,16368,-305,22,-159
2077165827,836,184,16144,-353,50,-224
2077167518,1264,48,16524,-221,74,-281
2077169242,980,392,16520,-253,73,-237
2077170928,1512,284,16696,-224,61,-312
2077172681,1020,884,17276,-291,-133,-205
2077174370,1628,208,17252,-252,53,-113
2077176109,1836,448,16524,-179,0,-134
2077177858,1648,644,16544,-244,-305,-166
2077179594,1480,820,16872,-420,-186,89
2077181359,1872,768,16904,-197,-49,88
2077183161,1576,324,16216,-151,-131,104
2077184872,1700,348,15216,-312,-214,31
2077186637,1708,384,16392,-410,-71,71
2077188409,1464,-528,16168,-128,195,12
2077190123,1712,-116,15600,-135,76,11
2077191796,1496,-432,16024,-257,101,-136
2077193551,2068,-492,15756,-321,322,-53
2077195240,1880,-192,17144,-190,435,-76
2077196933,2064,-136,15860,-143,161,-115
2077198620,2320,108,15656,-324,169,-84
2077200340,2096,212,17256,-293,246,-63
2077202021,2568,180,16764,-222,301,-80
2077203757,1964,552,16716,-240,63,-59
2077205499,1876,364,17208,-192,296,-83
2077207222,2252,348,16664,-255,105,43
2077208947,1452,-20,17792,-198,105,30
2077210667,996,92,15892,-158,171,74
2077212378,1280,-60,15400,-252,-28,0
2077214090,1400,-176,15812,-304,101,-4
2077215790,1488,-372,16208,-165,332,-33
2077217480,760,-544,16036,-107,277,-54
2077219167,968,-616,15944,-170,413,-117
2077220912,1084,-448,16468,-200,400,-193
2077222650,1452,-312,16652,-204,606,-82
2077224364,1144,132,16516,-160,415,-163
2077226057,900,80,17148,-184,382,-201
2077227720,1448,268,16980,-209,358,-195
2077229371,1872,340,17056,-231,276,-93
2077231024,1392,120,17592,-162,258,-127
2077232684,856,1052,17188,-217,16,-110
2077234393,1024,648,17216,-198,-8,-24
2077236100,1548,140,16796,-223,12,51
2077237829,780,104,16764,-211,-10,-5
2077239543,464,28,15860,-175,-6,-49
2077241296,592,876,15988,-310,2,-8
2077243008,504,536,16492,-336,67,71
2077245663,588,0,16184,-65,310,-29
2077247392,508,-128,16484,-188,235,-17
2077249103,1140,-184,15808,-199,253,1
2077250812,1180,-96,16148,-152,457,3
2077252520,908,24,16968,-166,310,51
2077254226,1116,636,16552,-325,15,8
2077255934,1400,712,16644,-369,103,105
2077257630,2288,-68,17392,-145,258,136
2077259326,1288,168,17448,-166,-23,104
2077261056,952,612,16452,-257,-106,110
2077262842,996,532,16828,-265,-110,187
2077264580,1504,-292,17004,-191,60,141
2077266281,900,-220,16216,-150,-54,28
2077267988,1440,380,15328,-236,-145,112
2077269728,1404,-452,15696,-233,-7,123
2077271426,2144,-392,16152,-161,296,-22
2077273129,1216,-600,16360,-130,160,-157
2077274907,1028,-164,15968,-145,154,-150
2077276620,2172,-116,15364,-257,242,-93
2077278380,1904,308,17412,-218,252,-216
2077280128,1248,60,16548,-231,177,-173
2077281845,896,852,16976,-238,9,-207
2077283571,1964,620,16860,-279,274,-22
2077285380,2060,1304,16548,-267,230,-41
2077287073,1624,512,16352,-200,113,19
2077288757,1404,896,16328,-222,179,62
2077290439,2156,856,16264,-291,229,217
2077292125,1096,200,16516,-174,207,172
2077293808,1748,296,15408,-205,23,137
2077295548,612,300,17412,-258,286,165
2077297247,2040,-512,16020,-201,412,216
2077298956,1780,-840,14756,-207,233,85
2077300666,1480,-748,15656,-258,364,-7
2077302373,1204,-288,16504,-337,380,71
2077304084,1688,-184,17200,-69,473,102
2077305819,2004,-560,15844,-56,481,62
2077307527,2060,-228,16456,-280,188,-34
2077309239,1272,448,17972,-209,399,19
2077310951,1692,444,16916,-94,359,102
2077312660,1076,112,17588,-119,243,104
2077314405,1624,472,16440,-218,153,76
2077316238,1144,420,16216,-127,109,94
2077317931,836,-140,17016,-86,343,191
2077319626,476,-144,16992,-58,214,153
2077321286,800,-180,16072,-99,174,52
2077323051,1048,-40,16620,-96,389,80
2077324781,1272,72,16644,-61,396,60
2077326496,988,-460,16572,-77,407,23
2077328164,1352,-176,16360,-23,330,-78
2077329817,1760,168,16572,-122,223,-61
2077331493,1520,-112,17040,-107,362,-45
2077333164,656,308,17128,-70,151,15
2077334821,888,232,17212,-67,31,-94
2077336552,1264,628,17056,-69,-21,-84
2077338252,1004,1068,17484,-135,84,139
2077339960,380,872,17344,24,62,182
2077341743,872,480,17116,17,-101,229
2077343460,696,472,17096,17,-71,200
2077345173,1176,92,16068,88,211,339
2077346914,476,-396,16280,54,-123,295
2077348631,940,-728,16120,64,-79,236
2077350339,780,-76,15880,21,102,273
2077352072,984,-496,16868,82,124,336
2077353779,392,-812,16764,58,-25,216
2077355485,1848,-1000,15552,55,77,136
2077357199,1500,-468,17788,154,198,71
2077358914,1660,-460,16920,79,89,112
2077360726,1328,168,16728,25,16,25
2077362502,1636,-380,17388,128,63,-36
2077364288,2044,344,15864,66,-288,74
2077366044,1420,404,16764,43,-88,16
2077367787,532,308,17368,28,-164,-3
2077369485,1024,64,16200,57,-285,-14
2077371155,600,492,16944,200,34,-16
2077372884,1000,368,16068,122,73,94
2077374562,448,132,16212,78,67,49
2077376243,580,220,15604,22,238,75
2077377946,1536,648,16060,99,78,124
2077379667,1192,64,16364,52,250,80
2077381381,1752,280,15300,-35,155,87
2077383081,980,404,17808,-36,199,-51
2077384780,2364,-164,16572,73,260,12
2077386504,1920,68,17388,100,223,13
2077388235,2008,32,17032,-35,117,-12
2077389935,1696,324,16544,-106,-221,-47
2077391622,1448,208,17464,71,23,43
2077393302,1524,144,16316,75,-102,19
2077394989,1176,-176,16360,-110,-363,-45
2077396675,748,492,16304,-123,10,-55
2077398416,608,628,16652,5,13,22
2077400121,916,168,16196,125,152,98
2077401836,1392,-108,15732,47,82,31
2077403545,1212,192,16956,88,385,67
2077405264,1880,-208,16360,152,349,76
2077406978,1144,-356,16972,159,357,69
2077408716,1756,-180,16524,71,293,31
2077410432,1472,-328,17888,180,288,3
2077412144,3232,-296,16008,132,79,-8
2077413848,2220,-356,16912,92,121,-81
2077415564,1864,-572,17500,166,2,-110
2077418181,2376,340,15676,137,-198,-20
2077419915,904,-80,16836,45,90,-11
2077421590,788,240,16216,46,-95,-52
2077423269,676,584,16680,56,-183,-21
2077424988,1388,616,16420,207,144,125
2077426673,1372,668,15044,131,281,132
2077428322,504,736,16172,87,281,161
2077430027,1116,512,16088,145,212,160
2077431699,1448,388,16584,270,368,169
2077433381,2028,504,15656,242,509,293
2077435066,1652,264,16428,157,275,211
2077436775,1288,116,16968,122,234,185
2077438538,1920,592,17060,330,333,298
2077440317,1736,500,17956,404,277,350
2077442109,2384,-368,16468,220,76,323
2077443804,1828,-20,15980,165,80,197
2077445484,1512,-372,16720,246,145,305
2077447163,1516,-276,16516,204,45,349
2077448844,1096,-120,16316,111,-161,201
2077450605,808,-256,16624,156,236,192
2077452305,984,56,16740,179,133,206
2077454015,984,-812,16328,247,200,97
2077455721,1268,-432,15636,81,301,-18
2077457428,648,176,16224,106,290,-5
2077459175,676,168,16188,152,347,19
2077460993,1288,444,16704,172,391,-20
2077462704,1828,204,16724,85,222,-85
2077464470,856,568,17472,90,268,-92
2077466224,792,672,17228,106,184,-68
2077467926,1020,192,18480,166,192,-27
2077469629,1624,140,16108,114,49,-80
2077471410,1064,956,16892,66,-93,33
2077473103,956,792,16164,18,-94,96
2077474803,492,304,16292,62,12,45
2077476498,204,100,16904,11,-143,-19
2077478380,804,72,15776,72,111,72
2077480115,552,416,15924,81,303,53
2077481906,76,-328,16916,261,238,-67
2077483617,1584,568,15376,-26,54,109
2077485324,1216,392,16868,165,371,-3
2077487024,1400,268,16300,175,354,129
2077488926,672,416,16964,28,0,77
2077490752,1480,28,16988,12,221,24
2077492667,1952,-72,15932,168,177,-15
2077494431,1316,312,16976,-3,-48,17
2077496150,1704,416,16156,-68,21,8
2077497831,2268,196,17424,75,118,-17
2077499502,2224,-356,17060,198,123,-1
2077501172,2460,-24,16508,79,-41,-25
2077502907,1064,-484,16824,-69,41,-81
2077504606,1168,-188,16312,114,14,-78
2077506316,1584,156,15980,128,-66,-35
2077508061,2072,-188,15216,90,121,-74
2077509839,1744,48,15740,40,19,-127
2077511606,992,88,17084,142,328,-175
2077513469,2060,48,15308,178,394,-71
2077515182,2024,168,15828,151,348,-96
2077516874,1940,268,15640,93,363,-107
2077518557,1432,652,16824,65,323,-89
2077520230,2044,572,16924,155,378,-11
2077521910,2216,196,16284,201,316,-9
2077523588,2036,580,17136,94,120,-45
2077525302,1500,444,17436,55,269,17
2077526988,1632,264,17180,109,217,21
2077528643,1792,-280,17136,195,212,49
2077530300,1832,-380,15612,16,-1,-42
2077531951,1460,-356,15996,-15,168,-56
2077533605,588,104,16356,60,74,46
2077535264,1096,-16,16096,92,186,-15
2077536958,564,-240,16404,10,169,-72
2077538671,1080,616,16112,-101,292,-125
2077540379,760,316,16728,66,405,-115
2077542088,1332,-96,17004,176,468,-89
2077543795,1188,96,16988,117,429,-112
2077545515,1192,212,16772,-83,273,-47
2077547231,580,360,17300,-12,124,-13
2077548946,1328,396,16848,10,159,-36
2077550667,1116,332,17400,-14,90,-3
2077552376,1056,436,16712,-171,-66,79
2077554086,1032,628,17224,-67,-62,20
2077555804,1220,220,16304,-50,68,81
2077557519,844,-148,16088,-82,3,6
2077559234,200,-8,16468,-127,-109,-123
2077560951,212,372,16592,-192,-19,-14
2077562661,1080,44,15536,-99,154,-43
2077564370,700,-96,16600,-108,-87,-132
2077566166,176,196,16544,-243,-44,-205
2077567911,440,712,16664,-286,95,-122
2077569586,1112,216,16848,-54,268,-66
2077571259,620,484,16244,-117,-35,-67
2077572933,716,752,16488,-296,52,-122
2077574604,704,808,17224,-273,166,-28
2077576295,1672,464,16224,-152,-3,-23
2077578046,1256,88,17532,-198,65,-54
2077579785,1812,404,17080,-308,-79,-25
2077581531,1428,60,16840,-336,-195,-36
2077583244,1396,-380,17092,-244,-64,-41
2077584970,1516,-224,16412,-255,-235,-111
2077586706,1612,-584,15872,-266,-323,-195
2077588430,744,-352,15676,-406,-302,-237
2077590745,964,104,16256,-296,-34,-286
2077592428,1200,-704,16040,-155,16,-317
2077594098,1656,-508,15468,-295,125,-402
2077595774,1052,60,16696,-345,148,-472
2077597452,1464,200,17208,-258,366,-355
2077599178,2088,292,16696,-137,298,-306
2077600865,2412,684,17160,-172,-32,-446
2077602558,2084,772,16348,-268,-69,-367
2077604249,1820,956,16804,-246,-35,-255
2077605945,1532,584,17496,-86,-80,-190
2077607639,1996,408,16376,-128,-218,-158
2077609339,1664,448,16460,-218,-152,-138
2077611045,1540,400,16592,-232,-63,-79
2077612792,2072,64,15700,-150,240,-23
2077614588,1416,-880,16708,-71,272,-114
2077616336,1464,216,15644,-214,58,-92
2077618059,1128,224,16216,-237,13,-112
2077619870,2592,-336,16732,-77,430,-120
2077621542,2964,-420,16452,-10,333,-160
2077623189,2356,196,16084,-229,104,-151
2077624836,1344,-176,17628,-185,149,-234
2077626507,2224,388,16240,-150,117,-205
2077628178,1744,-204,16980,-68,170,-143
2077629897,1356,56,16432,-268,-81,-72
2077631574,944,-284,17076,-255,-60,-129
2077633250,1240,832,15976,-214,71,-85
2077634927,1604,584,17416,-121,190,-83
2077636601,1716,640,17148,-192,-8,-15
2077638271,780,-292,17096,-66,226,-74
2077639991,1216,388,15408,-148,122,12
2077641726,1124,-300,17180,-102,178,23
2077643461,544,132,16260,-56,54,-28
2077645222,48,624,16608,-122,71,80
2077646949,632,1112,16016,-231,-22,187
2077648656,1324,176,17260,-98,229,168
2077650453,1544,544,16344,-85,224,200
2077652164,104,108,16980,-39,193,142
2077653853,900,464,15928,-239,98,274
2077655536,1488,-92,16848,-192,368,267
2077657216,1292,-84,17368,-61,227,238
2077658898,1368,-736,16276,-162,-54,151
2077660669,1548,180,16024,-355,-108,137
2077662370,1404,-692,16836,-309,27,114
2077664078,1192,-208,16672,-184,-58,73
2077665810,376,-492,17148,-190,-292,-33
2077667597,1148,20,15328,-313,135,-91
2077669349,1336,-288,16716,-212,242,-73
2077671072,932,368,16416,-203,-76,-144
2077672753,288,-344,16708,-189,228,-231
2077674411,152,712,16324,-231,130,-264
2077676068,1156,-156,16648,-243,270,-184
2077677723,1116,632,16032,-245,49,-215
2077679398,636,184,16760,-211,214,-191
2077681096,560,400,16416,-195,160,-147
2077682816,1812,240,16620,-228,164,-132
2077684539,1212,280,17512,-178,217,-216
2077686327,1392,-64,16628,-189,79,-158
2077688164,712,180,17176,-273,-13,-187
2077689962,1752,-284,16672,-258,105,-186
2077691709,2580,-308,16320,-280,51,-244
2077693404,1756,-664,16856,-274,-21,-282
2077695109,1788,-256,16064,-343,-172,-373
2077696859,2220,-132,16096,-342,-4,-302
2077698617,1780,-172,16708,-123,41,-462
2077700367,1440,324,16228,-254,-140,-435
2077702136,444,656,16616,-406,-214,-340
2077703824,1304,516,16224,-197,283,-333
2077705586,1848,988,16428,-172,223,-213
2077707360,1124,884,16864,-190,111,-183
2077709107,1592,560,16156,-137,316,-202
2077710822,1876,1064,16440,-121,348,-71
2077712614,2200,724,16664,-120,256,-18
2077714433,1956,-184,17312,-63,405,-6
2077716212,1884,268,17224,-64,183,-13
2077717929,2568,140,15808,-198,139,55
2077719615,2712,-692,16484,-133,360,50
2077721298,2132,-716,17108,-41,297,6
2077723058,956,-644,16092,-150,-46,-51
2077724755,1560,-256,15632,-262,234,-26
2077726440,1556,-332,16544,-115,445,-51
2077728121,1332,-304,16508,-47,402,-62
2077729806,1128,-56,15944,-130,254,-134
2077731490,1680,-196,15756,-218,509,-234
2077733181,1556,228,16132,-214,584,-187
2077734994,1372,636,17076,-148,505,-152
2077736838,1064,660,17372,-151,302,-103
2077738633,2176,532,16664,-87,491,-53
2077740394,2184,1004,17132,-76,354,-27
2077742120,1020,524,18272,-55,283,42
2077743929,324,952,17280,-49,71,106
2077745617,628,744,16796,9,59,192
2077747285,412,1204,17256,-85,15,291
2077748950,512,508,17072,-74,46,381
2077750619,528,324,16316,88,71,322
2077752285,856,148,15480,91,113,332
2077753995,1080,-52,16040,-29,199,323
2077755693,400,-696,16756,34,387,317
2077757405,976,-976,16272,99,244,255
2077759158,1044,-1016,15700,29,216,160
2077760888,1596,-488,16668,-98,233,160
2077763444,880,-1012,17144,14,63,41
2077765171,912,-568,17100,-37,18,-22
2077766862,748,-336,17416,-127,108,-56
2077768594,1540,-216,16816,5,-8,-79
2077770323,1052,572,16684,-3,-109,-196
2077772030,848,664,17156,-108,-13,-134
2077773712,1268,488,16928,-28,-56,-128
2077775395,1560,672,16580,64,-98,-143
2077777115,1284,640,16064,-17,-63,-71
2077778850,624,448,16124,-147,-21,-104
2077780570,80,308,16824,97,7,-140
2077782284,1156,464,16104,69,-1,-28
2077783978,940,336,16604,-55,89,33
2077785798,836,-200,16644,58,262,-74
2077787551,2008,-160,16064,3,54,-47
2077789266,1804,76,17144,15,147,-27
2077790950,2332,-160,16116,11,163,-6
2077792628,1532,0,16448,-35,-190,-113
2077794307,1576,-308,17252,-41,-140,-234
2077795983,2252,564,16996,-94,-180,-117
2077797689,2284,-384,16640,55,-91,-101
2077799380,1672,-652,15660,14,-168,-200
2077801067,1188,-36,16508,-113,-163,-224
2077802753,1092,-400,16924,11,130,-231
2077804446,1540,20,15208,52,76,-215
2077806197,324,552,16716,-47,164,-271
2077807900,520,96,16416,-73,179,-262
2077809644,1960,400,16548,61,342,-256
2077811430,2132,408,17036,163,344,-263
2077813216,1396,-24,16228,57,275,-217
2077814979,1560,432,16352,-12,290,-212
2077816797,1936,316,17916,117,298,-154
2077818480,2736,464,16652,200,26,-59
2077820150,2268,788,16276,44,78,26
2077821816,1896,412,16608,87,100,22
2077823478,1580,520,16396,121,-202,45
2077825140,888,612,16952,176,-76,81
2077826848,1280,460,16212,141,50,188
2077828571,1120,276,16284,131,33,169
2077830337,1468,-360,15784,130,29,109
2077832152,2084,120,16032,217,320,188
2077833979,1656,208,16688,235,246,258
2077835743,1436,-784,15980,215,220,225
2077837691,1212,-532,16372,187,275,181
2077839493,1292,-340,15536,273,69,159
2077841314,692,-344,16776,117,261,137
2077843052,700,64,16400,-22,260,156
2077844784,220,192,17876,114,314,119
2077846602,2156,-80,16452,310,252,285
2077848382,1552,64,16092,114,200,215
2077850168,248,188,16752,22,295,109
2077851968,424,256,17616,183,210,148
2077853809,336,748,17888,219,-40,207
2077855547,932,396,16140,142,326,177
2077857304,1316,272,16724,74,49,195
2077859102,1036,-328,16264,57,-126,148
2077860798,1432,-312,15500,145,351,139
2077862520,1016,-56,17388,205,157,150
2077864195,520,-712,16400,11,-33,36
2077865860,948,-516,16048,28,33,-66
2077867519,500,508,17196,193,51,-9
2077869258,800,96,15624,101,-39,-61
2077871031,608,336,15764,-101,-146,-89
2077872736,8,348,16836,-25,91,-121
2077874409,1384,332,16120,206,142,-62
2077876076,1692,512,16884,106,120,-65
2077877752,2160,416,15620,11,144,-64
2077879449,1604,504,16844,-13,97,-91
2077881145,1148,780,18456,156,40,-14
2077882851,1792,272,16692,178,-163,17
2077884547,1908,488,16836,9,-221,1
2077886218,1672,-508,16420,-25,-69,-49
2077887901,1876,-248,15144,32,-328,-141
2077889643,1252,-80,16348,96,-43,-165
2077891555,1700,-264,15236,96,87,-123
2077893313,1692,-824,15196,-26,72,-188
2077895065,1076,-284,17000,91,349,-327
2077896839,1940,-452,15996,183,329,-285
2077898553,2064,-200,15860,84,267,-296
2077900279,1636,-116,16384,11,401,-346
2077902022,2420,328,16720,16,279,-335
2077903737,2436,384,17864,154,350,-311
2077905487,3180,544,15848,124,90,-308
2077907251,2296,24,16172,9,78,-254
2077909035,1360,804,17988,122,75,-235
2077910804,1572,304,16488,233,76,-173
2077912570,1648,640,17056,170,40,-161
2077914370,916,484,16704,47,215,-111
2077916157,1612,504,15496,150,185,-95
2077917909,1776,176,16524,277,152,-4
2077919631,1676,268,15296,267,249,-27
2077921360,1172,484,15316,154,361,62
2077923181,752,428,17180,204,367,36
2077924881,1964,232,16072,287,442,98
2077926546,1996,136,16228,252,518,79
2077928194,1576,496,16944,229,494,127
2077929838,1736,496,16620,146,278,172
2077931482,1752,336,17484,229,433,189
2077933175,1684,-348,17396,411,400,162
2077934871,1636,-696,15728,121,25,172
2077937735,808,-268,16384,191,160,79
2077939515,1024,-160,16264,214,220,150
2077941232,904,-100,16416,143,68,108
2077942945,652,-444,15756,59,224,55
2077944665,-356,364,17568,187,390,-67
2077946372,932,-148,16228,148,243,-9
2077948099,532,-264,16576,153,407,-144
2077949792,-152,428,17104,136,514,-103
2077951481,-20,304,17108,140,348,-94
2077953173,372,812,16888,135,235,-46
2077954863,668,212,16312,59,258,-81
2077956553,176,384,17420,97,261,-113
2077958254,140,1112,17416,115,186,-93
2077959996,556,724,16552,68,47,35
2077961789,348,28,17564,175,246,-17
2077963504,276,724,16832,102,15,-70
2077965297,44,1144,16712,-67,-208,50
2077966996,1064,336,16756,43,95,203
2077968675,1308,-156,16876,100,-86,45
2077970404,1256,160,16628,-52,-324,-13
2077972135,1500,100,16304,-200,-22,-13
2077973818,2192,-468,16036,51,72,-92
2077975583,1528,-416,16696,-41,-226,-182
2077977265,2168,132,15700,-216,-260,-141
2077978966,1044,-332,17144,-239,-100,-209
2077980668,1540,-140,16104,-71,-106,-239
2077982372,1808,132,15972,-61,-117,-246
2077984077,1580,-108,16340,-202,-92,-325
2077985751,1544,-204,15956,-194,64,-315
2077987441,1176,-288,16640,-104,91,-429
2077989130,2432,-36,16184,-87,324,-282
2077990821,2716,176,15820,-112,253,-370
2077992510,2036,120,16680,-81,197,-479
2077994192,2048,656,16948,-119,155,-438
2077995874,2604,172,17188,-111,201,-354
2077997556,2212,-104,16252,-21,-20,-453
2077999235,1964,624,16024,-121,-103,-440
2078000915,1196,660,17296,-173,-73,-379
2078002595,2172,-36,16048,13,202,-262
2078004275,1636,52,16404,103,233,-347
2078006023,1552,424,16172,-45,120,-317
2078007736,1292,780,16028,-175,281,-235
2078009463,1976,324,16284,-3,472,-139
2078011201,1500,136,16532,44,412,-133
2078012995,1508,956,16012,-118,193,-112
2078014817,1140,620,17068,-103,362,-66
2078016624,2112,-4,16692,-26,365,15
2078018352,1616,88,17240,-2,265,-65
2078020062,1880,244,16824,-153,173,-2
2078021800,1284,428,16860,-147,188,49
2078023572,1792,396,16744,-136,70,101
2078025281,1828,-192,16456,-128,101,129
2078027018,1700,368,16472,-82,5,41
2078028714,960,196,16344,-227,-20,52
2078030419,1264,420,16424,-208,124,71
2078032115,1160,584,16920,-154,190,118
2078033809,1104,-212,16328,14,75,18
2078035504,368,296,15908,-196,17,107
2078037262,232,4,16212,-189,246,111
2078038975,304,-204,16796,15,250,115
2078040686,720,-240,15864,-98,152,83
2078042401,92,-116,16540,-185,341,9
2078044117,140,276,16892,-182,319,69
2078045829,1272,-408,16460,-41,330,2
2078047576,1068,-376,16556,-146,200,-43
2078049300,576,-40,16672,-188,115,-100
2078051018,324,264,17080,-186,102,-77
2078052728,1096,296,17900,-217,82,35
2078054437,1160,-136,16292,-222,-58,-36
2078056151,980,-144,16652,-151,-12,-160
2078057887,292,1056,17200,-332,-252,-33
2078059605,636,652,16860,-216,-136,-52
2078061326,236,-276,16652,-106,-31,-54
2078063035,424,196,15948,-147,-258,-117
2078064748,224,48,15588,-359,-198,-81
2078066485,804,632,16744,-249,100,-48
2078068292,1028,264,16192,-169,53,-8
2078069980,1400,-148,16024,-233,25,-76
2078071640,1328,524,16700,-382,88,-117
2078073347,1696,144,16708,-296,51,-122
2078075036,2480,28,16252,-211,154,-114
2078076692,2280,-360,16632,-295,-72,-202
2078078407,1280,-780,16500,-408,-158,-240
2078080075,1144,-228,16220,-357,-112,-279
2078081793,2116,-680,16220,-323,-179,-281
2078083501,1652,-800,16264,-325,-85,-382
2078085179,1592,308,15872,-353,45,-394
2078086870,1192,-32,17420,-299,44,-381
2078088578,2796,940,15688,-348,166,-288
2078090252,2312,-24,16340,-132,359,-405
2078091937,1976,668,16380,-130,219,-400
2078093623,1984,580,15900,-287,29,-374
2078095296,1940,584,16352,-208,168,-309
2078096972,2016,732,16376,-121,273,-225
2078098711,1960,432,16200,-121,1,-144
2078100398,1192,292,16992,-161,103,-148
2078102093,2588,788,15496,-156,312,-50
2078103788,2420,164,16776,-130,434,1
2078105483,2096,128,16512,-82,292,-50
2078107175,1940,-4,16396,-199,307,-50
2078109617,2352,160,15460,-253,128,29
2078111331,2120,-700,17404,-141,374,-79
2078113073,1736,-296,15872,-191,176,-143
2078114830,1104,-276,17124,-191,160,-144
2078116559,1800,104,15188,-226,240,-150
2078118266,2012,-528,16716,-137,375,-165
2078120079,1364,484,16468,-165,234,-178
2078121755,1244,104,16216,-176,302,-142
2078123418,1132,836,16516,-201,315,-108
2078125081,1144,492,17216,-147,591,-40
2078126743,1364,776,17232,-107,446,-28
2078128404,900,996,17684,-174,169,84
2078130109,1032,1464,16856,-130,337,123
2078131804,1316,1216,17192,-121,384,255
2078133513,612,544,17680,40,180,297
2078135221,604,440,16556,-66,-19,423
2078136931,348,104,16612,-112,97,412
2078138643,1080,92,15924,-110,272,493
2078140376,1176,-612,15956,-117,146,465
2078142088,780,-720,16548,-140,169,425
2078143795,496,-948,16024,-150,243,368
2078145504,776,-676,15608,-182,251,325
2078147213,464,-1172,16716,-196,252,120
2078148921,684,-1028,16312,-170,404,12
2078150628,456,-760,17360,-131,373,-68
2078152361,1684,-48,16000,-256,323,-138
2078154069,1540,-256,17596,-206,302,-147
2078155776,1008,184,17064,-212,71,-212
2078157484,668,616,17712,-188,163,-247
2078159197,1400,844,16856,-211,-132,-118
2078160911,996,788,17784,-163,107,-35
2078162699,1020,720,16704,-124,-117,-42
2078164391,728,772,16896,-258,-373,-5
2078166073,756,960,15988,-295,52,60
2078167755,1116,240,16324,-153,163,76
2078169436,148,528,16332,-142,-110,47
2078171112,20,-224,15648,-231,39,6
2078172863,1488,-220,15356,-157,417,-8
2078174583,1884,-560,15860,-115,439,-29
2078176279,1288,-700,16284,-164,349,-113
2078177941,1164,-288,17216,-268,277,-85
2078179595,1404,-268,16220,-237,288,-119
2078181245,2568,-324,17140,-171,345,-105
2078182929,2116,32,16328,-288,41,-132
2078184621,1720,-652,16964,-238,149,-222
2078186338,2532,100,16108,-370,53,-179
2078188101,2804,100,16932,-252,73,-262
2078189808,2424,-436,16836,-177,141,-231
2078191503,2540,-408,16768,-123,210,-267
2078193211,2064,-164,15420,-294,-17,-287
2078194914,1504,-172,16424,-208,66,-346
2078196582,1376,448,16248,-184,193,-277
2078198240,64,60,16900,-86,92,-245
2078199898,1428,520,15548,-233,180,-241
2078201555,1324,148,16584,-204,297,-279
2078203213,1672,692,16504,-53,492,-168
2078204873,1160,608,16696,-6,551,-95
2078206569,716,676,17292,-57,323,-81
2078208277,1432,468,16816,-96,521,-14
2078209991,2368,568,16396,-20,443,18
2078211731,1564,152,17644,-29,160,44
2078213506,1908,444,16004,-66,102,58
2078215401,1756,-44,17196,-80,127,99
2078217137,1488,380,17892,-5,-48,176
2078218836,1176,76,16896,-8,92,214
2078220517,992,-212,16620,-25,28,211
2078222194,500,-396,16320,-35,119,147
2078223868,804,96,15540,-48,82,129
2078225601,212,-364,16708,-96,230,175
2078227292,388,-200,15508,-44,336,129
2078228989,1088,-96,16576,16,204,40
2078230684,1396,-176,16784,76,504,71
2078232379,1448,-532,16464,149,634,82
2078234071,560,-572,17484,137,197,-104
2078235822,944,-480,17132,5,259,-83
2078237526,908,-384,17128,66,164,-179
2078239231,584,328,18000,77,50,-74
2078240953,732,632,17288,-48,-100,-88
2078242670,1684,-36,16744,146,-110,-109
2078244383,888,648,17444,287,-67,-160
2078246096,1596,596,15824,17,-208,46
2078247809,36,0,17096,-11,-115,-68
2078249519,520,132,16460,106,-41,-103
2078251230,940,360,15508,132,-311,-21
2078252938,128,364,17000,29,-67,29
2078254645,216,64,16788,88,-129,-38
2078256374,940,-160,16892,54,-210,-1
2078258082,820,-240,16188,173,101,-125
2078259793,1608,164,15156,84,26,-67
2078261633,1580,-320,16380,27,19,-105
2078263407,1844,-296,16112,39,89,-139
2078265155,1584,220,16500,59,-139,-184
2078267049,1800,140,17088,51,19,-112
2078268750,1504,288,16816,-61,-21,-162
2078270424,1572,100,17512,-71,-152,-213
2078272112,1756,416,17408,98,-1,-261
2078273872,2592,296,15392,92,-30,-95
2078275620,1592,140,16068,-71,-210,-142
2078277389,1300,164,16276,-97,-98,-166
2078279086,1644,84,16084,143,5,-217
2078282148,1196,52,14972,7,-51,-135
2078283944,1152,-100,16072,-81,186,-232
2078285656,1568,-324,16616,128,409,-248
2078287467,1996,672,15392,96,272,-211
2078289168,1492,332,16496,56,446,-140
2078290854,2456,480,15680,33,408,-119
2078292537,2140,88,17244,207,307,-245
2078294223,2300,908,16844,157,191,-152
2078295913,1928,372,16828,91,135,-87
2078297680,1392,28,16936,88,128,-40
2078299360,1312,496,17252,41,-41,-12
2078301024,1680,492,17440,127,-52,-19
2078302685,2448,88,15832,187,46,134
2078304348,1232,-64,16796,164,25,68
2078306012,1220,-80,15672,68,11,81
2078307728,1224,480,16208,181,108,116
2078309433,872,-80,16416,271,74,126
2078311202,1328,88,14696,148,78,142
2078312917,380,-328,16564,94,449,-49
2078314637,740,-112,16548,244,349,132
2078316440,2068,-372,15132,248,404,94
2078318315,684,-8,17212,42,448,28
2078320043,1492,-204,16008,47,398,16
2078321703,816,224,17780,134,239,-39
2078323358,1256,360,17216,229,395,-27
2078325009,1188,196,17108,163,254,2
2078326661,608,536,17596,86,82,47
2078328359,528,224,16936,137,53,70
2078330048,272,72,17520,241,29,50
2078331756,1064,-164,16196,205,123,89
2078333475,980,36,16216,-70,-123,64
2078335192,636,24,16580,-48,-40,1
2078336907,632,532,16240,202,72,50
2078338646,1096,60,16348,228,-63,59
2078340354,164,-204,16572,-28,-70,-114
2078342065,468,-84,15988,-79,-118,-165
2078343771,-496,492,18236,244,153,-100
2078345478,1256,384,15660,222,42,-35
2078347189,1304,204,16760,88,48,-104
2078348919,868,684,16708,-20,185,-111
2078350626,640,672,16240,103,-101,-54
2078352339,1256,624,17892,207,118,-28
2078354045,1716,592,17172,116,37,15
2078355750,1856,8,15772,-50,-85,32
2078357489,960,532,17924,100,-54,1
2078359206,1872,16,16108,92,-35,61
2078360995,1684,-336,16768,80,-21,-38
2078362821,1196,-192,15884,-95,-134,-7
2078364535,1264,252,16500,2,34,-51
2078366246,2172,-144,15772,149,140,-90
2078367953,1976,-232,15452,122,97,-121
2078369746,2004,48,15536,-85,18,-193
2078371454,1048,68,17504,30,322,-191
2078373158,1604,176,16752,279,277,-113
2078374872,1548,-444,16872,405,42,-317
2078376578,1988,908,16356,-97,156,-66
2078378273,1472,72,16540,209,315,-126
2078380067,1612,508,17192,324,153,-125
2078382040,1924,348,16328,128,137,-56
2078383806,2304,588,16284,-45,293,22
2078385542,1540,432,17528,186,110,-49
2078387263,2628,-556,16236,168,256,68
2078388980,2068,-724,16640,107,266,-53
2078390780,1180,-380,17028,58,175,-75
2078392464,1132,152,16336,97,0,-70
2078394125,1768,-448,16340,119,309,-99
2078395796,1408,-400,16304,135,258,-136
2078397468,1556,228,15168,3,-6,-160
2078399128,324,268,16708,99,381,-214
2078400792,572,840,16672,120,426,-90
2078402468,436,168,16720,329,293,-202
2078404147,1188,196,16504,37,377,-98
2078405832,532,336,17300,86,435,-168
2078407514,916,820,17212,191,453,-13
2078409239,984,620,17668,197,407,60
2078411014,1564,292,16896,52,40,14
2078412758,824,92,16936,60,91,13
2078414465,1276,324,16840,75,52,74
2078416530,1008,-532,17048,67,17,-45
2078418439,872,-592,16236,-19,11,-102
2078420254,96,-96,16564,-9,6,-138
2078421998,684,20,15960,-20,40,-133
2078423670,376,-40,16632,-38,129,-117
2078425331,692,292,16188,-17,196,-269
2078426993,536,752,16708,-60,72,-240
2078428647,432,996,17112,-38,90,-112
2078430299,1628,512,16608,98,399,-111
2078431954,1284,148,17216,77,207,-152
2078433649,1080,784,16600,-134,-115,-105
2078435374,1024,888,17396,-147,-161,-50
2078437093,1636,488,17352,-20,-6,49
2078438807,2200,248,16632,-75,-173,34
2078440518,1696,-152,16624,-216,-466,-21
2078442266,948,200,16736,-226,-273,-9
2078443981,580,-412,16112,-137,-59,48
2078445737,656,-544,17136,-142,-125,-69
2078447451,68,148,15780,-217,-147,-111
2078449168,1220,364,14860,-207,3,-139
2078450884,1944,-220,16664,-70,158,-225
2078452621,2096,60,16136,-104,228,-237
2078455188,1316,236,16520,-125,273,-264
2078456912,2416,432,16216,-165,189,-197
2078458625,2124,148,17260,-113,285,-224
2078460349,2100,388,15968,-172,-58,-181
2078462084,1108,260,17528,-217,-116,-205
2078463858,1268,292,16988,-267,-57,-174
2078465594,1828,0,17060,-239,-35,-132
2078467279,1596,24,16584,-200,-158,-160
2078468951,828,-380,16536,-254,-46,-275
2078470625,1280,420,15724,-362,-32,-230
2078472297,1428,-552,16668,-167,164,-271
2078474026,1408,28,15808,-223,-10,-226
2078475729,380,116,16428,-228,39,-266
2078477445,684,384,15980,-233,111,-309
2078479156,2120,-200,15848,-246,100,-222
2078480865,1152,764,16764,-190,61,-356
2078482580,932,512,16408,-200,160,-280
2078484383,1616,632,16268,-218,137,-271
2078486117,2176,-380,17196,-149,293,-400
2078487832,2508,-220,16952,-201,261,-372
2078489526,1656,-436,17268,-134,148,-397
2078491218,1548,-76,16192,-185,-36,-475
2078492910,2032,-284,16900,-322,-44,-403
2078494665,2224,-620,17248,-255,3,-493
2078496392,1644,-320,16348,-188,-125,-412
2078498114,1300,960,15884,-296,-312,-467
2078499823,1068,52,16136,-325,125,-481
2078501532,1472,520,16408,-228,168,-423
2078503239,-252,920,16436,-137,5,-356
2078504949,-176,976,15892,-204,123,-280
2078506651,644,1260,15308,-256,297,-238
2078508342,996,448,16372,-128,434,-147
2078510037,500,628,17080,-23,406,-55
2078511733,732,1304,16932,-131,244,68
2078513440,1420,220,15420,-174,332,132
2078515154,2036,112,17372,-136,369,105
2078516836,1744,68,18080,-154,126,165
2078518548,1644,-64,17336,-154,55,242
2078520284,1540,-60,16268,-162,-163,171
2078521978,1592,-604,17480,-213,-217,89
2078523654,1708,-424,17052,-210,-62,256
2078525399,1036,-1320,17224,-58,-81,138
2078527078,868,-488,15268,-129,-347,23
2078528761,692,-472,15368,-320,49,-25
2078530442,380,152,16568,-290,110,-20
2078532117,172,-308,16752,-26,54,-105
2078533792,1204,96,14560,-172,207,-128
2078535472,908,-44,15860,-136,413,-199
2078537200,1264,624,16460,-146,328,-214
2078538909,756,84,17040,-97,322,-101
2078540630,724,564,16980,-113,305,-96
2078542345,1580,428,16540,-139,254,-83
2078544099,1592,1132,17684,-270,-70,-77
2078545829,1084,56,17540,-195,168,83
2078547615,1272,492,15956,-136,-202,3
2078549323,1016,440,16972,-212,-139,21
2078551017,1780,380,15768,-412,-203,10
2078552711,836,-256,16908,-176,31,65
2078554408,24,-388,16480,2,-58,-49
2078556112,816,88,14692,-339,-206,70
2078557867,160,60,16208,-374,67,-122
2078559579,380,-316,16024,-150,329,-124
2078561338,608,4,16840,-131,354,-109
2078563122,1552,-436,15744,-235,225,-204
2078564900,2300,312,16548,-353,390,-244
2078566642,2120,36,17848,-188,351,-145
2078568463,2488,304,16448,-201,-137,-225
2078570161,2448,-32,16376,-357,-57,-215
2078571845,2508,172,17284,-365,-102,-372
2078573527,1480,-444,16932,-309,-378,-280
2078575222,1744,-32,16320,-247,-288,-286
2078576925,2160,-296,15616,-339,-230,-346
2078578683,1740,-288,16120,-380,-220,-419
2078580388,1748,772,16092,-433,-117,-295
2078582105,700,-476,17460,-169,218,-331
2078583836,1480,-96,14952,-151,127,-332
2078585580,1776,264,15592,-375,152,-330
2078587328,1020,264,16476,-344,234,-313
2078589152,1172,532,15904,-98,412,-245
2078590855,1300,192,15196,-123,301,-217
2078592545,1512,492,16788,-290,268,-188
2078594229,1508,988,16260,-317,383,-82
2078595917,2100,268,17220,0,651,-71
2078597606,1824,192,17504,-47,399,-21
2078599348,2256,204,16908,-176,180,-5
2078601051,1640,84,17188,-206,379,34
2078602762,1140,1076,18036,-42,124,88
2078604470,2440,-220,15240,-172,-90,136
2078606201,2228,-168,16548,-209,78,112
2078607929,1876,84,15828,-201,-109,62
2078609646,920,-60,17052,-109,-17,98
2078611361,1020,260,16572,-92,333,131
2078613103,1288,-372,16372,-128,238,140
2078614845,612,-20,16144,-145,158,-14
2078616566,644,-32,16028,-158,438,-15
2078618281,548,492,16364,-172,426,48
2078620094,412,-368,17040,-115,332,72
2078621823,1148,72,16496,-111,290,-84
2078623500,1356,624,16976,-130,402,-35
2078625158,1280,520,16348,-165,367,63
2078627578,1440,-348,17396,-38,97,-53
2078629275,1584,36,16576,-139,178,8
2078630989,560,4,17752,-164,216,15
2078632671,1672,168,17020,-126,-10,43
2078634373,1824,216,17128,-92,59,21
2078636070,1100,4,17296,-86,-60,56
2078637764,132,360,17008,-57,-257,-95
2078639458,588,156,15944,-168,-93,108
2078641208,192,-240,16632,-10,16,56
2078642929,500,256,16208,-44,-159,70
2078644698,852,188,15556,-131,10,38
2078646450,1116,-164,16668,31,169,52
2078648167,1644,-92,16096,35,113,60
2078649882,980,-240,16332,-53,116,-11
2078651672,516,224,17980,-92,115,17
2078653372,1700,-32,16624,10,204,-15
2078655064,1976,-200,17632,24,53,-32
2078656763,1688,76,17248,-122,-239,-59
2078658459,1780,64,16292,-148,-182,-82
2078660160,1992,152,17044,-65,-238,-86
2078661944,2212,148,16872,-38,-212,-112
2078663704,1196,340,16024,-129,-379,-163
2078665429,1248,360,16540,-67,-131,-151
2078667148,1264,140,16640,49,-115,-181
2078668977,2120,-88,15600,51,-131,-197
2078670769,340,-8,16472,-39,33,-174
2078672515,708,24,16228,-45,158,-145
2078674204,1716,108,16028,84,49,-149
2078675886,1484,-80,16360,121,141,-168
2078677569,1848,48,15176,-68,93,-91
2078679282,1260,-188,17276,-36,9,-179
2078680987,2300,-72,16288,51,131,-204
2078682744,2844,-264,16580,102,181,-137
2078684496,1248,-120,17484,81,-2,-176
2078686246,1596,264,16884,-54,-5,-111
2078687974,1800,-444,17404,1,30,-183
2078689733,1436,412,17104,146,-41,-138
2078691448,868,396,15896,-22,-249,-41
2078693166,392,728,16816,-16,-168,-122
2078694861,1136,488,15532,64,-29,-38
2078696536,1048,376,15560,171,-54,-20
2078698210,-36,684,17328,139,78,44
2078699881,1028,448,15492,42,102,118
2078701552,448,-112,17456,162,436,113
2078703273,1624,-124,16712,268,335,28
2078704963,2028,-80,17212,184,243,68
2078706659,1608,-868,16916,182,369,-30
2078708351,1736,-936,16480,18,25,31
2078710047,1208,-248,17596,132,-240,-152
2078711744,1708,-68,16480,104,-190,-120
2078713440,1452,-80,16772,38,-190,-9
2078715127,1372,-576,16656,6,-213,-197
2078716808,1740,-100,16432,51,-135,-265
2078718491,772,548,16960,226,-196,-341
2078720171,772,1108,16172,-1,-28,26
2078721912,460,1120,16716,103,60,0
2078723661,1104,252,16592,244,55,2
2078725346,904,428,15728,194,-44,60
2078726997,692,896,15716,138,-25,205
2078728643,324,364,15980,156,141,227
2078730288,996,-148,16316,147,147,248
2078731931,1428,-560,17148,141,179,204
2078733617,1808,200,16620,142,79,159
2078735309,1996,-208,16140,127,140,198
2078737022,1676,-880,16960,26,21,72
2078738737,2004,-804,16804,66,-19,-43
2078740446,1520,-212,17048,110,-252,-135
2078742155,1456,-204,16016,99,-85,-90
2078743888,1728,360,16232,-39,-207,-173
2078745598,1436,-104,17300,30,-172,-238
2078747307,1300,968,16452,165,-186,-262
2078749014,1028,788,16180,118,48,-126
2078750720,716,776,16720,57,61,-89
2078752426,1528,284,16432,36,-80,-79
2078754203,1084,736,15800,178,-96,-141
2078756038,188,140,16340,85,28,78
2078757806,232,552,16344,-26,12,20
2078759542,1608,-504,16608,57,188,13
2078761327,2052,44,16208,181,65,-68
2078763182,1568,-168,16456,238,183,-168
2078765057,1912,-156,16616,-100,146,10
2078766822,1356,-616,17600,226,45,-250
2078768514,2036,240,17220,162,-193,-216
2078770178,1836,-432,16080,39,111,-132
2078771836,1680,28,16356,-81,-199,-109
2078773495,1772,-648,16876,5,-194,-202
2078775157,1540,204,15956,66,-118,-222
2078776830,1216,1012,16152,27,-33,-32
2078778523,1084,204,15864,-12,20,-25
2078780223,1452,424,16164,-23,-4,-66
2078781922,312,476,16968,255,269,-150
2078783619,1064,904,15984,230,88,-52
2078785349,32,344,16604,77,144,12
2078787104,836,-228,16408,152,486,-57
2078788877,1504,-436,16012,245,260,-65
2078790616,1572,-396,16388,257,327,-171
2078792335,1636,-72,16556,129,415,-55
2078794052,1724,-228,17120,168,332,-166
2078795844,1664,-180,17552,181,291,-205
2078797548,2132,20,17460,184,86,-203
2078799985,1452,32,16808,64,6,-201
2078801735,1520,-204,16916,28,-59,-319
2078803500,1340,-32,17152,29,-99,-285
2078805332,856,1472,16000,131,-247,-223
2078807275,364,348,16220,101,9,-68
2078809074,892,152,15976,77,68,-89
2078810874,908,1096,15896,208,146,-115
2078812649,708,288,15776,212,240,50
2078814397,376,844,16192,177,329,75
2078816114,1356,316,15844,84,420,101
2078817924,1336,-256,17600,187,376,1
2078819651,1736,724,16328,192,123,122
2078821356,1636,4,17064,167,288,154
2078823100,1516,-396,17364,184,177,80
2078824873,2160,-404,16836,197,-95,-69
2078826620,1896,-652,15940,83,-4,-50
2078828323,1120,-392,16648,91,101,-83
2078830009,1264,156,16144,-32,-144,-72
2078831730,1620,-264,16948,81,-157,-152
2078833453,1656,476,15968,138,-70,-130
2078835143,988,136,15932,132,113,-54
2078836839,268,360,16652,77,-114,-197
2078838558,1544,608,15940,-37,-69,-146
2078840247,588,256,17112,196,350,-139
2078841956,980,876,15892,155,142,9
2078843645,1552,820,16504,-9,174,45
2078845321,2072,-248,16784,19,354,22
2078847015,1820,596,16636,219,292,-80
2078848726,1444,96,16692,127,87,3
2078850416,1512,-80,17088,-13,120,29
2078852098,2908,-596,16676,48,249,-74
2078853779,2208,40,16872,52,-233,-232
2078855456,2160,444,16272,-84,-271,-173
2078857131,572,152,17136,-177,-132,-148
2078858856,1148,-204,16736,-10,-176,-287
2078860555,1220,664,16068,-94,-280,-164
2078862231,1236,484,15680,-80,-90,-179
2078863975,172,500,16500,-29,63,-183
2078865726,1240,912,15620,-71,189,-72
2078867416,512,432,16776,22,298,-107
2078869125,1456,696,16416,78,298,62
2078870831,1164,500,16396,26,272,49
2078872506,1704,-8,16148,-62,156,-74
2078874179,1420,244,16624,-77,217,-35
2078875856,1608,104,17004,7,279,-57
2078877530,728,-272,17532,4,61,-63
2078879224,1696,-104,16620,-24,-75,-116
2078880912,2340,-1320,16448,0,280,-204
2078882586,2096,-568,17256,-52,105,-260
2078884265,1480,-456,16920,-78,-57,-258
2078885987,1152,-488,16716,-94,45,-280
2078887718,1636,144,16764,-94,81,-288
2078889462,1760,1136,16140,-192,-313,-312
2078891203,1472,936,16120,-185,-167,-225
2078892905,996,680,16284,5,-63,-253
2078894585,704,684,16460,-112,-146,-191
2078896281,856,1076,15608,-183,-78,-121
2078897976,1096,692,16292,-60,248,-66
2078899674,524,536,17120,-46,203,-13
2078901362,1468,496,16040,-106,255,-4
2078903044,1456,-96,17116,-95,224,-62
2078904717,1236,608,16920,-79,192,52
2078906456,1536,-16,16656,15,46,-63
2078908201,1976,488,16848,-112,-27,11
2078909929,2524,-1056,16340,-139,111,-84
2078911661,2096,128,16324,-158,-171,-86
2078913388,1296,228,17480,-205,-142,-29
2078915063,1856,-8,15916,-246,-161,-6
2078916714,1248,336,16536,-177,-182,-134
2078918364,452,940,17500,-228,-151,26
2078920030,1208,-92,17128,-88,-163,-10
2078921704,1280,60,15580,-116,117,1
2078923378,764,-264,16244,-42,47,-148
2078925104,712,940,16392,-150,-126,-72
2078926849,760,260,16632,-166,326,53
2078928574,1228,-252,15956,-40,189,71
2078930395,1608,-36,16780,-123,85,-107
2078932127,1432,364,16432,-229,96,-103
2078933855,1604,-356,17588,-145,257,-45
2078935576,1924,-272,16204,-105,50,-120
2078937279,1624,-12,16932,-241,-110,-275
2078938990,1604,632,16788,-342,-113,-162
2078940825,1476,48,17608,-218,-144,-128
2078942591,1228,272,16364,-215,-235,-185
2078944364,1048,220,16508,-285,-225,-227
2078946094,468,832,16516,-324,-273,-177
2078947834,412,224,16888,-187,-98,-122
2078949615,668,456,15484,-227,-114,-72
2078951408,856,840,15896,-268,-23,-95
2078953138,672,792,15728,-314,-49,-31
2078954867,916,388,17040,-239,184,32
2078956556,1140,256,15800,-185,222,-18
2078958208,1384,-76,16664,-281,73,-124
2078959870,1548,552,16396,-376,15,-74
2078961590,1956,144,17172,-265,214,-73
2078963266,1956,-816,16844,-110,52,-77
2078965024,2312,-792,16992,-9,-131,-303
2078966764,2052,284,16416,-460,-237,-55
2078968452,1440,-664,16948,-164,-8,-242
2078970138,1632,-48,15736,-207,-199,-243
2078972881,1716,-48,16356,-317,-84,-312
2078974597,852,16,16896,-282,53,-276
2078976303,2064,348,15844,-162,215,-215
2078978003,1608,-536,17116,-139,233,-287
2078979681,1492,448,16048,-207,195,-320
2078981366,964,472,16600,-188,155,-327
2078983135,1844,24,15780,-185,98,-248
2078984887,1408,-12,16664,-149,286,-255
2078986639,1756,512,15804,-137,23,-350
2078988389,1324,-180,17476,-225,71,-265
2078990099,2220,720,15752,-220,340,-228
2078991803,2000,-304,17056,-123,462,-187
2078993534,1548,420,17264,-135,118,-270
2078995231,1728,292,15840,-245,82,-212
2078996930,908,1044,16852,-264,176,-145
2078998625,1804,72,17164,-151,343,-82
2079000317,1840,728,16052,-264,-345,-52
2079002009,1464,432,15876,-270,-19,-10
2079003780,1072,796,16504,-180,-19,33
2079005492,2036,132,16064,-203,-18,177
2079007204,960,192,16340,-211,237,62
2079009014,448,-204,16468,-119,110,120
2079010731,752,536,15340,-205,-1,126
2079012522,1888,-880,16148,-160,421,126
2079014333,1728,-324,16608,-238,329,103
2079016174,1540,-284,16844,-128,125,-35
2079017964,2384,-80,16688,-180,368,-43
2079019673,2344,-1048,17828,-143,520,-22
2079021337,1104,-204,16608,-86,38,-131
2079023005,888,-284,16480,-155,-170,-196
2079024753,968,612,15716,-291,-91,-94
2079026481,1576,292,17496,-226,142,-62
2079028175,1620,676,16720,-143,-108,-83
2079029849,1452,816,17240,-128,-30,-52
2079031507,360,1040,15564,-209,-8,-24
2079033162,1484,-20,16240,-150,350,37
2079034822,204,436,17620,-103,154,-22
2079036507,144,-268,16284,-131,-25,7
2079038204,504,608,14892,-244,208,20
2079039909,1220,-188,17600,-171,255,-5
2079041607,912,-144,16832,-196,-16,-60
2079043300,1144,-496,16424,-203,367,-122
2079045070,1484,336,16968,-177,248,-99
2079046784,2020,-392,16320,-225,209,-60
2079048493,1688,476,17004,-188,111,-183
2079050206,1404,512,17116,-284,-43,-111
2079051914,1240,980,16296,-320,-208,-77
2079053620,1120,1156,16920,-292,-140,-51
2079055353,852,620,17016,-207,-77,-46
2079057062,224,444,16132,-269,-252,58
2079058795,748,756,15260,-269,66,45
2079060535,716,8,16168,-233,268,78
2079062258,744,84,16156,-144,270,128
2079063975,676,-648,15936,-135,248,18
2079065733,932,-604,16600,-164,293,-59
2079067474,1984,-584,15876,-187,426,-45
2079069192,1944,-900,16400,-127,311,-239
2079070918,1888,-900,17588,-212,261,-324
2079072617,1672,-60,18048,-226,76,-383
2079074279,2468,-68,17604,-165,178,-273
2079075963,2436,316,17468,-63,71,-289
2079077677,1724,-48,17552,-145,-166,-282
2079079350,1296,392,16756,-199,-122,-239
2079081020,1568,1024,16704,-121,-129,-214
2079082696,1500,784,17348,-135,-103,-82
2079084380,604,956,16264,-147,-61,26
2079086085,792,908,15712,-97,-19,-40
2079087888,1152,60,15864,-71,129,50
2079089595,1608,4,15480,-24,265,45
2079091294,1108,-288,16084,-12,469,102
2079092994,896,-396,17064,-29,303,42
2079094693,2244,352,16264,-88,493,90
2079096461,2556,-432,17424,-40,540,89
2079098159,2040,-472,17564,30,238,-11
2079099874,2288,-272,16476,-168,-33,6
2079101630,2004,-728,17144,-102,168,-54
2079103356,2304,156,17384,52,-22,-54
2079105058,1632,-132,17092,-96,-201,-51
2079106793,840,-180,16816,-86,-182,-142
2079108569,1160,284,16064,89,-83,-160
2079110383,1336,-8,16292,96,-85,31
2079112184,448,-148,16340,0,-13,-71
2079113954,616,828,16616,-56,94,-109
2079115690,1032,536,16952,178,141,8
2079117488,1452,328,16240,210,172,40
2079119169,732,-96,16544,108,255,-2
2079120834,232,-528,17184,111,-18,-74
2079122495,924,-76,16524,101,-66,-36
2079124160,1080,-548,16984,128,93,-20
2079125824,452,-120,17148,6,-53,-95
2079127527,964,96,16856,-65,-205,-125
2079129240,924,236,17768,101,-144,-103
2079130969,1080,-316,16284,160,-41,-145
2079132688,680,536,16328,-46,-298,-100
2079134450,-116,736,16608,-11,-398,-103
2079136172,972,936,17044,134,-136,51
2079137912,856,708,16188,153,-133,60
2079139620,412,744,16760,-45,-373,116
2079141333,16,912,16252,-20,-438,152
2079143043,816,260,16456,194,43,240
2079145635,1048,132,15876,39,-254,229
2079147364,1336,-192,15900,-19,-115,211
2079149077,1600,-364,16516,128,27,144
2079150779,2076,-932,16596,169,118,121
2079152488,1856,-560,16352,93,-25,69
2079154190,2288,-716,16636,-28,-161,-89
2079155893,1712,-588,16864,34,-93,-75
2079157590,2680,-392,16600,38,-190,-130
2079159288,1868,-576,17056,45,-262,-228
2079161039,2752,124,15736,-1,-261,-160
2079162754,1580,788,16324,9,-280,-149
2079164461,548,368,17380,29,-169,-105
2079166167,1404,456,16344,41,-258,-106
2079167943,1028,740,16152,63,-115,-131
2079169857,888,528,15456,57,54,32
2079171541,1616,88,15900,105,160,52
2079173204,1412,12,16036,190,276,1
2079174865,2360,-184,15392,125,280,7
2079176524,1924,36,16592,114,307,67
2079178189,2332,-332,16080,177,449,65
2079179897,3200,-380,16304,170,149,-5
2079181590,2936,-628,17236,95,59,-166
2079183300,2368,176,16428,17,15,-82
2079185009,1780,112,17296,31,-58,9
2079186754,1864,-132,17344,100,-56,-129
2079188520,2104,852,15440,4,-162,-74
2079190355,1404,388,16228,45,-82,73
2079192070,1332,532,15672,75,22,76
2079193752,1196,292,16024,78,-41,31
2079195432,952,220,16632,226,284,62
2079197114,1176,348,15848,259,186,62
2079198795,1224,-304,16028,90,433,164
2079200539,1148,-248,16720,131,390,5
2079202248,1560,-136,16624,221,287,-16
2079203961,1592,-120,16684,197,268,60
2079205704,1424,-376,16836,110,350,45
2079207410,1920,-612,17164,170,132,-124
2079209127,1928,-656,17312,219,53,-193
2079210893,2080,120,16484,64,61,-95
2079212643,564,520,17772,122,56,-175
2079214385,1376,-204,16516,72,-142,-168
2079216132,1328,4,16952,126,-39,-172
2079217832,756,128,16448,189,-197,-182
2079219567,160,152,15704,134,-69,-190
2079221349,476,508,16112,-29,-37,-50
2079223055,244,268,17044,162,131,-112
2079224804,1808,744,15172,235,194,-26
2079226562,860,376,16188,51,171,-36
2079228244,324,-76,17144,165,15,-135
2079229924,1024,624,16536,193,34,-49
2079231671,1248,308,16804,207,235,75
2079233361,792,324,16968,74,-46,11
2079235052,1572,56,16844,-5,-144,-47
2079236746,1344,120,17408,138,173,-43
2079238438,1472,180,16272,180,-97,-110
2079240161,1024,412,16992,59,-112,-38
2079241932,952,-364,16680,1,80,-79
2079243651,1424,44,16048,162,-38,-78
2079245343,1804,8,15544,59,-89,-110
2079247035,1360,332,15568,-33,18,-81
2079248732,964,224,16220,-27,-8,-146
2079250434,1396,364,16892,119,86,-84
2079252221,1844,284,16280,133,143,-132
2079253892,1596,500,16992,-20,90,-51
2079255536,1280,-84,16696,38,228,-149
2079257187,2016,408,16572,136,97,-76
2079258837,1828,-12,17036,146,217,-31
2079260486,2036,348,16216,54,71,-40
2079262140,2008,-124,16116,29,-116,-155
2079263816,1868,400,16796,22,28,-123
2079265508,2484,400,15744,103,50,17
2079267197,1840,224,16644,149,-99,-71
2079268896,2228,580,15584,-26,-180,-8
2079270646,1140,452,16852,-41,59,-50
2079272465,2096,-256,16232,212,290,76
2079274141,1528,488,15384,136,-5,-2
2079275798,868,-52,15956,90,139,-21
2079277459,760,860,16004,56,315,97
2079279116,1664,-332,16100,296,429,55
2079280771,1372,-296,15816,282,416,-13
2079282471,1736,-12,16036,33,291,-51
2079284169,1132,256,17640,186,594,-25
2079285926,2488,-560,16612,282,620,-33
2079287771,1600,-24,17776,219,447,-99
2079289506,2420,-356,16912,141,264,-187
2079291250,2056,100,16904,88,174,-118
2079293054,2480,308,16784,129,85,-70
2079294751,1900,-280,16684,142,202,-95
2079296436,1948,-96,15692,-23,-213,-123
2079298114,180,596,17324,16,-106,-101
2079299794,1316,308,15680,48,-11,-62
2079301473,532,84,16716,168,153,-115
2079303207,712,320,16004,55,203,-203
2079304913,508,720,16304,37,229,-135
2079306621,1116,-124,16456,159,534,-169
2079308327,628,228,16388,172,416,-185
2079310080,1260,464,16472,-18,306,-213
2079311799,384,688,17576,28,367,-196
2079313590,1348,784,17296,167,381,-67
2079315326,1248,256,16980,61,90,-4
2079318160,1168,676,16628,0,71,-85
2079319937,1416,696,17564,-5,-48,30
2079321622,1612,884,16648,-92,-140,135
2079323371,1364,-220,16616,-70,-182,-46
2079325048,384,156,16280,-77,-190,27
2079326729,572,-260,15588,-85,-96,12
2079328409,-248,-204,16540,-57,-155,-88
2079330088,500,-592,15872,-78,69,-150
2079331767,584,-236,15840,-92,171,-196
2079333501,600,20,16728,-93,196,-163
2079335200,1256,424,16396,-13,254,-262
2079336910,1904,-172,16452,-120,227,-168
2079338615,1508,360,17404,-54,222,-238
2079340319,1528,996,17336,-138,-53,-125
2079342032,1800,392,16772,-177,-47,-78
2079343764,2028,480,17012,-173,-101,-45
2079345469,1968,560,16392,-279,-563,-180
2079347174,1068,548,17740,-347,-292,3
2079348922,1760,324,16460,-246,-318,72
2079350629,1144,-92,16668,-237,-382,41
2079352332,976,608,15840,-365,-372,-55
2079354063,1084,240,15980,-319,-76,43
2079355768,1028,-164,16684,-211,-49,-7
2079357482,1228,-32,15496,-178,-46,-61
2079359345,1204,296,15952,-287,113,-23
2079361818,1704,44,16192,-211,208,-32
2079363627,1428,-12,16920,-161,193,-73
2079365374,2096,-184,15912,-205,160,-102
2079367069,2308,276,16416,-309,115,-127
2079368766,1924,344,17512,-299,191,-85
2079370502,2928,-24,16560,-194,63,-120
2079372229,3084,-472,16576,-121,9,-180
2079373944,2000,-204,16756,-264,-85,-167
2079375607,1724,20,17028,-309,-201,-153
2079377280,1700,-368,16676,-185,-102,-150
2079378947,1644,-300,16108,-175,-203,-201
2079380612,1292,16,15836,-239,-242,-257
2079382276,1056,608,16500,-247,-47,-166
2079383935,1160,472,15768,35,169,-148
2079385611,1052,-80,15932,188,158,-251
2079387368,1388,728,15776,-213,120,-50
2079389111,1004,692,16136,-75,388,-102
2079390848,1584,60,16364,-18,492,-31
2079392576,1888,540,16444,-71,439,-18
2079394286,1988,352,16492,-179,265,-84
2079396106,1812,16,17424,-88,231,15
2079397850,2084,-116,16752,-132,105,60
2079399533,1956,-436,16740,-155,36,-14
2079401209,1908,68,17252,-251,-43,-49
2079402883,1936,-76,17168,-224,-152,62
2079404550,1516,-460,17236,-168,-135,27
2079406222,1100,52,15696,-281,-141,3
2079407925,684,168,15748,-280,-203,-66
2079409654,436,240,16084,-303,-69,-63
2079411439,316,724,16340,-247,165,-46
2079413253,700,72,15852,-60,202,-64
2079415070,1016,200,16032,-115,190,-174
2079416831,704,-68,16636,-187,439,-66
2079418538,512,88,17232,-68,482,-108
2079420220,848,-92,16620,-73,273,-15
2079421894,952,236,17140,-228,165,-93
2079423568,1080,96,17732,-256,127,-96
2079425252,1296,220,17900,-109,99,-62
2079427052,2136,-96,16392,-154,-107,-110
2079428780,1164,-124,16984,-296,-308,-200
2079430499,1120,760,16400,-275,-249,-170
2079432213,876,416,17248,-198,-312,-24
2079433908,656,-176,16272,-175,-394,-81
2079435563,960,112,15488,-239,-266,-163
2079437252,488,472,16264,-312,-296,-94
2079438901,264,296,17340,-167,-116,-122
2079440552,548,368,16108,-174,-77,-115
2079442202,472,-168,16164,-216,147,-68
2079443873,844,544,15752,-310,-40,-32
2079445575,1576,228,16328,-240,159,12
2079447356,1772,272,16616,-198,406,17
2079449093,1948,-196,16244,-191,164,-41
2079450832,2324,-140,16160,-385,6,-158
2079452625,2056,-616,17968,-369,179,-104
2079454429,2968,-588,16336,-234,188,-165
2079456230,2636,-544,16588,-248,-75,-262
2079458092,2120,-16,17232,-442,-162,-279
2079459830,2080,208,16656,-286,-94,-240
2079461533,2092,76,15552,-236,-173,-218
2079463208,1680,-116,15740,-233,-135,-304
2079464895,1512,1036,15136,-401,-155,-259
2079466578,1496,488,16748,-209,159,-144
2079468254,1924,776,15416,-166,221,-110
2079469924,1872,240,16148,-158,267,-130
2079471588,1692,688,15944,-219,433,-58
2079473293,1868,560,16400,-159,500,46
2079475022,2388,32,16516,-68,372,79
2079476710,1884,-492,17096,-117,394,-13
2079478441,2288,-104,16024,-185,187,-8
2079480102,1720,-244,17732,-228,223,92
2079481770,2808,-212,15836,-192,179,75
2079483444,3076,-796,16108,-160,240,-29
2079485120,2516,-312,16784,-177,163,-100
2079486822,1812,-72,16172,-333,57,-7
2079488587,1296,-32,16060,-141,304,-136
2079491020,824,60,16672,-178,89,-124
2079492741,688,1012,16304,-288,170,-109
2079494441,1012,912,16840,-134,370,-14
2079496170,1060,940,16124,-75,447,73
2079497899,1132,620,16588,-109,336,68
2079499607,1136,652,16336,-182,400,98
2079501306,1076,792,17120,-148,553,173
2079502993,1204,276,16916,-49,447,265
2079504673,1036,232,16940,-131,107,244
2079506367,1136,376,16620,-275,232,273
2079508085,1132,-180,17272,-186,221,306
2079509777,1040,-704,17332,-67,140,248
2079511496,972,-1240,16444,-111,176,91
2079513265,612,-1196,16496,-152,128,64
2079515037,460,-844,15844,-146,-17,-78
2079516791,1048,-564,16452,-206,241,-163
2079518527,744,-1032,16480,-184,204,-182
2079520342,880,24,16472,-127,15,-323
2079522032,748,280,16244,-172,36,-297
2079523706,888,248,17084,-184,315,-261
2079525379,156,712,17228,-114,78,-266
2079527048,332,1208,17292,-139,-23,-243
2079528718,180,1696,17196,-141,27,-89
2079530437,748,1632,17292,36,66,63
2079532139,336,1980,17444,-20,-51,174
2079533867,104,824,16860,-99,-243,147
2079535591,296,860,17324,-37,80,274
2079537309,1012,588,16264,24,34,506
2079539046,316,-28,16552,-10,-75,500
2079540850,1672,-624,15908,-118,-274,425
2079542554,1300,0,16320,-149,24,428
2079544274,1268,-580,17140,-44,-113,449
2079545988,1772,-1208,16288,-64,-252,388
2079547690,2136,-996,16296,-149,20,110
2079549387,1892,-88,16520,-139,-64,70
2079551154,1976,-640,17444,-85,-83,54
2079552866,2632,-732,15972,-69,33,-43
2079554582,2652,-448,15724,-123,-34,-215
2079556292,1712,-368,17560,-79,-209,-188
2079558002,2464,-248,16380,-69,-195,-198
2079559744,2336,-296,16356,-55,118,-248
2079561561,2232,-228,16480,-50,-149,-350
2079563306,1676,708,16648,-147,-114,-261
2079564990,1848,348,16800,-75,77,-271
2079566675,1996,484,16908,110,238,-206
2079568358,2164,540,16008,34,-92,-267
2079570038,1168,608,16380,-15,-56,-230
2079571780,1440,1004,16400,-2,220,-103
2079573484,1060,552,16764,111,68,-69
2079575193,1212,280,15908,69,55,-135
2079576904,868,1332,16268,11,180,-62
2079578621,1224,316,16996,122,376,73
2079580332,1896,-204,16292,185,240,85
2079582078,1972,12,16528,150,179,40
2079583788,1616,136,17428,112,353,122
2079585498,2464,64,16144,98,167,250
2079587232,2436,152,16792,111,-10,133
2079588985,2328,-268,16436,94,-9,145
2079590710,2032,544,16524,59,-308,191
2079592450,1160,48,17064,88,-79,173
2079594168,1316,-760,16760,118,181,123
2079595882,868,-312,17456,133,14,114
2079597580,832,148,16396,146,-23,94
2079599257,1396,-356,15264,91,287,145
2079600930,236,-288,16472,98,406,94
2079602666,1424,-52,15412,108,158,63
2079604367,1084,160,16072,85,125,68
2079606076,852,76,17036,187,413,115
2079607781,1268,20,16108,265,322,64
2079609505,1392,-236,17648,129,214,126
2079611228,932,4,16896,289,222,-19
2079612949,1300,172,16968,261,232,66
2079614763,308,100,17516,39,98,152
2079616543,924,148,17520,0,-117,86
2079618266,1352,484,17236,268,-157,158
2079619952,2368,196,16140,242,-139,240
2079621639,784,-68,16680,-8,-321,91
2079623412,156,152,16880,39,-305,55
2079625115,980,140,16212,276,-209,185
2079626821,948,-168,16124,258,-171,158
2079628516,684,600,15376,-51,-69,144
2079630213,912,92,16540,102,-100,82
2079631905,896,0,16684,217,-62,48
2079633659,1104,448,15200,177,41,111
2079635366,16,304,17388,48,203,64
2079637079,580,252,17108,113,50,52
2079638789,1464,156,16864,196,-6,59
2079640501,2028,-240,17344,186,254,17
2079642209,2036,152,16192,-58,-180,31
2079643971,2176,760,17156,-20,-166,19
2079645793,2556,216,17264,93,-9,53
2079647533,2212,140,16916,137,-240,5
2079649248,2172,240,15996,-162,-418,-36
2079650969,1808,-168,16828,12,-236,-128
2079652677,2472,-104,15984,104,-86,-88
2079654469,1344,-8,16328,90,-202,-134
2079656173,1104,-308,15432,-33,-255,-155
2079657867,1164,304,15040,-50,137,-62
2079659563,1016,-412,15808,121,385,-82
2079661258,1348,180,15376,149,36,-141
2079664078,1656,152,16180,42,638,-122
2079665936,2788,84,16724,197,513,-89
2079667668,3012,-376,16488,251,541,-158
2079669433,3668,-40,16140,39,252,-169
2079671150,2240,772,18444,79,95,-48
2079672830,2436,64,17616,128,70,-36
2079674503,2320,312,17800,85,-204,-56
2079676175,1596,244,17104,94,-290,-67
2079677857,1192,776,15736,104,-281,24
2079679538,704,644,16416,111,-127,64
2079681217,632,336,15372,158,76,119
2079682897,708,324,15552,267,213,105
2079684576,568,856,15816,241,294,163
2079686316,1024,412,15208,226,472,278
2079688102,756,-180,16252,306,730,296
2079689851,1492,-272,16440,312,570,254
2079691563,1304,-220,17228,273,400,230
2079693278,2164,-636,15940,154,705,272
2079695003,1520,-272,17240,133,280,251
2079696807,1756,-296,18244,212,103,168
2079698483,1960,-184,17164,222,91,166
2079700147,1508,-224,17228,119,149,135
2079701812,660,-304,17292,22,-90,51
2079703536,712,-476,17392,82,-214,12
2079705319,712,220,17032,231,-9,42
2079707103,940,28,15260,193,-98,-4
2079708792,0,348,16368,-11,-41,-14
2079710490,184,384,16288,80,124,-21
2079712175,208,660,16388,321,130,-8
2079713855,428,452,16244,199,198,56
2079715663,456,324,16720,35,283,70
2079717423,396,316,17216,118,351,3
2079719135,1148,684,16784,232,196,86
2079720824,1620,592,16624,118,-1,162
2079722490,1744,348,16576,55,90,171
2079724153,1672,200,16296,83,10,178
2079725814,1664,156,17276,113,-238,195
2079727539,2232,-192,16128,25,-194,268
2079729227,2160,-260,16032,-57,-166,81
2079730922,960,540,17584,-17,-90,108
2079732614,2036,-300,16320,7,-86,108
2079734308,1748,-512,16804,37,9,6
2079736037,1476,-284,15884,-25,-107,-167
2079737795,956,-204,15968,-67,-94,-82
2079739500,1236,-496,16396,-22,32,-155
2079741210,1748,44,15840,65,121,-154
2079742917,2304,368,15480,-52,-146,-257
2079744624,1688,428,16448,-110,190,-170
2079746332,1912,860,16508,-47,310,-153
2079748090,1508,844,17436,29,181,-138
2079749800,2280,460,16652,-30,91,-152
2079751509,2312,212,16360,-43,295,-13
2079753287,1328,-132,17556,19,244,-69
2079755086,2000,-120,16128,-41,-52,-84
2079756831,2136,316,15776,-70,-22,-103
2079758632,1596,-20,16348,-73,5,-19
2079760331,1692,-232,15924,-72,46,-46
2079762087,2284,28,15832,-122,-23,-129
2079763816,1884,12,16864,-30,306,-224
2079765493,1820,-232,16320,5,319,-207
2079767163,920,748,17776,-49,239,-174
2079768915,1720,-276,15864,-14,360,-133
2079770597,1612,548,16284,-22,21,-183
2079772279,1420,692,16944,-107,54,-87
2079773960,1248,392,16132,-128,143,-14
2079775644,1356,244,16856,-21,4,22
2079777324,1616,300,15900,-24,87,8
2079779107,2124,564,15644,-113,38,68
2079780832,412,416,17760,58,329,82
2079782547,1188,748,16064,-27,107,182
2079784257,824,248,16624,-57,170,201
2079785967,1572,316,16672,-60,251,174
2079787676,1148,-64,16284,-61,178,172
2079789457,1060,-320,16608,-74,104,93
2079791366,1052,-576,17216,-79,137,38
2079793132,1788,-244,16400,-116,114,8
2079794851,944,-668,17284,-110,152,57
2079796575,876,-212,16428,-135,-8,-35
2079798344,1148,236,16148,-189,-18,-72
2079800182,1636,84,16208,-177,21,-39
2079801907,912,556,17476,-193,-55,6
2079803572,672,720,17044,-214,2,-57
2079805228,884,1148,16440,-203,-80,9
2079806882,1316,792,16912,-178,-77,66
2079808532,996,136,16968,-109,55,78
2079810201,552,36,16472,-86,53,61
2079811907,924,84,15800,-122,-82,52
2079813611,1468,-420,16396,-184,8,51
2079815308,956,204,16588,-185,61,11
2079817013,1076,-388,16588,-125,73,-52
2079818774,2108,-252,15928,-182,-119,-78
2079820623,2068,-392,16948,-265,85,-182
2079822311,1288,-140,17116,-93,-66,-210
2079823975,1204,-316,16968,29,-185,-314
2079825628,2300,756,15656,-438,-297,-136
2079827280,1692,-340,16824,-168,-33,-352
2079828930,2332,1360,16844,-156,-245,-297
2079830618,1100,-24,16732,-271,-342,-120
2079832317,1140,252,15852,-304,14,-96
2079834040,848,40,16408,-207,22,-186
2079836626,1208,-76,16532,-230,58,-174
2079838349,1148,-108,15848,-250,31,-118
2079840084,1632,-24,14916,-223,194,-162
2079841853,2032,8,16556,-294,23,-221
2079843556,1712,-360,17072,-313,101,-166
2079845265,1884,-160,16024,-204,91,-285
2079846972,2108,-256,15840,-236,28,-333
2079848672,2548,36,16880,-355,60,-385
2079850365,1988,-244,17248,-233,179,-374
2079852119,1324,72,17576,-162,-26,-377
2079853827,1776,388,16104,-268,-22,-374
2079855542,2332,812,16392,-372,1,-380
2079857251,952,32,17748,-4,-113,-331
2079858969,968,668,16500,-98,-317,-338
2079860682,920,156,15036,-347,-137,-141
2079862420,1072,1304,16816,-228,-48,-101
2079864180,1180,436,16640,-118,343,-8
2079865893,636,616,17416,-99,258,-10
2079867574,1696,0,14940,-168,356,39
2079869256,2572,-176,15956,-104,409,-93
2079870936,2344,-96,16752,-122,429,-30
2079872686,2032,-752,16384,-114,428,-66
2079874392,1796,-220,16588,-153,206,-157
2079876106,1604,-124,17236,-218,74,-188
2079877816,2232,116,16296,-234,-10,-173
2079879525,932,-228,17924,-74,150,-248
2079881237,1440,756,16104,-151,-53,-152
2079883017,1312,180,16556,-202,-32,-127
2079884728,2108,612,16524,-239,255,-12
2079886430,1024,268,17456,-45,276,31
2079888129,408,844,16360,-159,-51,98
2079889841,936,896,15720,-227,28,183
2079891551,920,392,16744,-171,114,232
2079893264,472,724,16912,-80,50,328
2079894954,144,952,17160,-94,-60,328
2079896628,928,104,15584,-176,99,418
2079898304,1984,72,15488,-127,309,437
2079899980,1432,244,17188,-97,302,385
2079901681,1604,-344,16860,-66,248,411
2079903417,2108,-504,15724,-24,378,321
2079905099,2220,-1416,17116,-52,411,213
2079906788,2528,-1136,16988,-117,155,187
2079908470,1692,-1648,16580,-176,61,-22
2079910152,1208,-520,16424,-186,26,-108
2079911835,1504,96,17196,-292,-177,-86
2079913547,2108,-292,17052,-271,-47,-125
2079915238,1360,16,16892,-120,0,-171
2079916924,464,568,16912,-104,-180,-193
2079918636,944,944,15104,-237,-98,-167
2079920343,932,1056,16548,-191,276,-98
2079922053,160,772,16736,-89,60,-60
2079923835,108,1024,15920,-177,-19,-33
2079925505,1120,1108,16412,-273,411,37
2079927166,1660,500,16608,-92,349,21
2079928825,1056,40,16588,-112,256,15
2079930481,976,380,17420,-196,140,25
2079932137,1680,-612,16644,-201,317,-11
2079933832,2524,-536,16772,-140,310,-50
2079935525,1684,-100,16912,-232,-141,-83
2079937234,1660,-48,15956,-371,-229,-117
2079938941,1792,-156,16892,-310,-2,-119
2079940650,2220,68,16568,-280,-14,-141
2079942357,788,-16,16948,-310,-153,-132
2079944094,1088,124,15124,-320,6,-160
2079945805,1244,68,15400,-276,191,-167
2079947515,1696,104,16540,-234,289,-172
2079949224,704,128,17244,-227,251,-163
2079950931,1924,196,15256,-275,230,-166
2079952637,1892,-84,16300,-267,380,-197
2079954371,2536,332,16796,-251,289,-226
2079956085,1764,-392,17024,-102,222,-304
2079957793,1572,112,16460,-188,-4,-417
2079959508,2644,616,15768,-338,102,-272
2079961219,2332,-192,16960,-144,288,-410
2079962972,1404,-88,16860,-90,111,-276
2079964736,1828,792,15668,-285,126,-205
2079966436,1408,72,16936,-260,298,-188
2079968117,1968,584,15716,-128,223,-101
2079969790,656,632,16716,-128,174,-102
2079971461,556,1248,16180,-192,146,-22
2079973129,1072,932,15744,-193,177,102
2079974799,1620,364,16624,-17,354,180
2079976497,1496,532,16436,-64,359,258
2079978246,500,356,16712,-97,203,238
2079979987,2200,-584,15860,-63,509,287
2079981741,2832,-612,16248,-53,492,242
2079983454,1992,-672,17652,-51,500,202
2079985183,1424,-356,16680,-94,230,171
2079986912,2320,-836,15952,-57,145,110
2079988641,1532,-560,16880,-59,197,66
2079990413,1856,-384,16580,-170,86,16
2079992162,896,-364,17224,-98,17,-61
2079993878,1616,-300,16140,-49,91,-77
2079995604,1168,292,16636,-106,30,-83
2079997330,784,632,16968,-73,223,-54
2079999021,312,608,16696,-110,20,-19
2080000691,1072,848,16332,0,198,-19
2080002347,836,804,17060,58,337,53
2080004031,1100,144,17160,90,182,80
2080005695,740,-484,17092,276,-16,-158
2080008098,2248,432,16624,3,231,71
2080009825,1600,-912,16720,196,102,-12
2080011535,1308,272,17348,112,-158,-2
2080013243,948,-648,16848,-76,-134,-65
2080014952,1308,-424,17100,36,-44,-51
2080016658,1824,156,15928,52,-254,-91
2080018359,456,0,16816,5,-295,-119
2080020092,344,296,16612,-120,-193,-5
2080021792,864,776,16260,41,-72,-32
2080023476,976,428,16464,97,-96,-47
2080025159,904,644,16512,23,8,58
2080026821,1224,212,16524,29,-55,-49
2080028542,1416,176,17516,136,91,-51
2080030235,2228,-172,16956,136,60,-2
2080031923,1424,-144,16800,66,15,-62
2080033606,2176,-476,16484,-2,-178,-120
2080035292,2256,-296,17064,39,-150,-147
2080036978,2856,-224,16088,46,-280,-189
2080038723,1240,-292,16228,-19,-263,-247
2080040427,1356,240,15916,-120,-334,-244
2080042140,1312,-156,16568,-26,-241,-334
2080043848,1608,292,15756,122,14,-263
2080045555,592,1140,15888,-3,-73,-201
2080047263,860,620,16072,-24,-50,-175
2080048997,1344,444,16404,72,303,-181
2080050830,1808,488,16128,187,197,-73
2080052706,896,524,16448,88,85,-30
2080054482,1364,44,16784,52,317,21
2080056218,1592,572,16968,126,209,3
2080057929,2620,-256,17004,189,123,79
2080059690,1972,420,15988,-36,35,84
2080061491,2192,-112,17224,69,82,81
2080063216,2368,-736,16444,162,66,41
2080064891,2656,-72,15580,138,-39,-9
2080066574,968,-24,17328,30,37,-14
2080068261,1532,-72,16188,-34,-120,59
2080070005,1128,-92,16948,96,-32,-89
2080071701,1748,-80,16332,166,144,-30
2080073405,1760,272,15084,65,-11,58
2080075102,1300,184,16056,46,128,1
2080076822,1388,-116,16068,104,238,-11
2080078540,1668,276,16404,282,238,72
2080080276,1768,-144,16092,266,326,70
2080081976,1388,388,16036,61,159,65
2080083671,928,-48,17512,173,375,3
2080085367,1492,-368,17160,364,279,65
2080087063,1740,-300,16672,273,48,33
2080088756,1420,-168,16768,117,267,-70
2080090496,2000,-576,16932,172,234,-79
2080092210,1560,52,17560,248,99,-78
2080093904,2320,-272,15972,217,117,-82
2080095600,1876,-156,16284,0,1,-72
2080097294,1140,336,16676,29,-70,-125
2080098988,1196,620,16664,110,-97,-99
2080100685,1460,948,16644,165,-147,-14
2080102359,552,336,16592,167,46,48
2080104043,836,-188,16476,329,-68,-57
2080105702,836,1668,16372,181,-219,59
2080107357,1140,-296,15856,296,368,112
2080109015,-36,508,16892,375,208,4
2080110722,716,508,16144,45,9,181
2080112403,1416,136,17392,163,392,95
2080114099,2176,-408,16772,245,359,39
2080115796,1572,-324,16940,233,228,19
2080117491,1692,-740,16776,4,-10,-27
2080119186,1712,-200,17760,192,192,-86
2080120888,2152,-432,16664,262,-13,-139
2080122597,1924,-116,16312,-4,-217,-108
2080124310,1404,336,16940,-142,-346,-228
2080125983,1548,-212,16716,9,-147,-199
2080127636,1712,744,16312,197,-159,-159
2080129288,584,784,16444,36,-53,-69
2080130999,484,464,16516,-32,-41,-73
2080132682,1008,780,16716,129,88,-142
2080134386,1328,32,15404,186,130,14
2080136125,496,320,16296,130,160,-28
2080137868,624,504,15836,37,96,-31
2080139594,1032,-40,16756,76,306,-13
2080141324,1900,-136,15776,182,207,-74
2080143067,1860,-24,16380,166,332,-108
2080144843,1544,-460,16232,77,209,-140
2080146638,2300,-40,16892,31,286,-54
2080148378,2224,240,16736,119,161,-195
2080150078,1196,-216,17040,7,64,-141
2080151784,1156,372,16812,-104,-126,-146
2080153522,828,404,17220,22,-75,-180
2080155224,2004,320,15960,178,43,-94
2080156924,1340,732,16888,111,-3,-71
2080158627,1220,400,16068,-85,52,-54
2080160337,1880,168,15924,74,223,-15
2080162106,1900,-104,16328,244,294,-12
2080163938,1904,-36,15672,150,292,6
2080165632,1080,228,16304,47,126,-119
2080167324,1396,360,17032,106,231,-150
2080169008,2308,-1084,16080,261,324,-173
2080170689,1840,-192,16996,238,196,-272
2080172369,2212,-816,15956,33,279,-266
2080174106,2324,-612,16168,52,288,-248
2080175797,1616,-360,17096,165,313,-329
2080177507,2452,296,16004,126,253,-272
2080179966,1860,228,15992,-7,213,-252
2080181696,1144,308,17392,53,237,-334
2080183387,1800,292,16372,109,167,-242
2080185087,1552,416,16016,129,139,-184
2080186786,724,340,16456,150,172,-246
2080188500,1456,272,15708,-5,172,-124
2080190205,1684,588,16496,142,328,-181
2080191940,1224,384,17084,110,330,-81
2080193705,1436,424,16596,21,204,-30
2080195414,1704,-120,16692,18,410,-153
2080197108,2728,-268,17072,164,406,-214
2080198804,2604,112,17608,76,149,-133
2080200498,884,-188,16476,-51,-72,-150
2080202195,1444,-660,16696,-50,185,-108
2080203891,1208,-296,16628,-33,-325,-154
2080205583,1236,16,16080,-65,-350,-214
2080207258,-60,464,17076,-178,3,-156
2080208926,1088,700,16284,-138,-115,-165
2080210589,1416,424,15936,-63,-37,-148
2080212253,1368,608,16176,-32,246,-65
2080213914,-12,512,16696,-21,131,-25
2080215599,-68,780,16088,-71,-21,-8
2080217285,844,588,16496,-95,400,-54
2080218960,1416,240,16468,-34,69,-66
2080220651,1096,624,16580,-2,118,11
2080222405,1512,0,16328,-65,63,-94
2080224113,2140,-384,17056,-189,72,-181
2080225834,1708,476,17932,-150,-45,-118
2080227528,2068,-88,16960,-169,-226,-32
2080229186,996,-240,17388,-192,-283,-155
2080230845,1388,-184,16180,-275,-341,-216
2080232502,1336,256,16148,-354,-494,-266
2080234156,-68,160,16700,-298,-316,-254
2080235857,300,568,15116,-308,-297,-196
2080237552,300,708,15484,-223,6,-207
2080239264,1352,624,15500,-219,62,-269
2080240972,1196,824,16492,-239,275,-67
2080242679,848,452,17060,-160,405,-144
2080244387,2216,496,16304,-117,248,-53
2080246120,2304,224,17048,-234,11,-128
2080247828,1748,300,17612,-253,86,-15
2080249537,1692,300,17796,-159,-68,29
2080251244,2680,-40,15748,-240,-449,-76
2080252950,1976,-336,16884,-322,-174,-211
2080254657,1988,708,16708,-321,-299,-111
2080256388,1584,-536,17060,-136,-260,-143
2080258095,1868,-796,15580,-212,111,-85
2080259807,1276,204,15564,-219,-71,-272
2080261518,1064,-204,15376,-261,-83,-258
2080263247,1068,440,16648,-219,106,-159
2080265013,1580,120,16044,-76,274,-212
2080266841,1396,-64,15812,-182,127,-262
2080268527,1760,252,15652,-205,136,-295
2080270195,1760,200,16960,-171,197,-224
2080271859,2652,128,17376,-27,483,-143
2080273524,2940,-200,16900,-27,293,-164
2080275192,2452,168,17116,-200,-84,-189
2080276908,1828,460,18332,-172,126,-177
2080278606,2680,-92,16312,-136,99,-135
2080280318,1632,-384,17488,-157,-159,-222
2080282027,1012,-96,15928,-249,-314,-239
2080283734,980,248,15680,-232,-255,-164
2080285444,1304,176,15120,-195,-14,-149
2080287176,1428,-160,15648,-129,-53,-215
2080288885,716,468,15852,-209,72,-161
2080290638,460,568,15960,-123,215,-195
2080292404,1460,716,15384,-174,282,-122
2080294135,1400,200,17760,-116,662,-108
2080295854,1088,220,16784,-130,261,-74
2080297664,1624,764,16588,-219,72,-48
2080299353,2008,844,16544,-251,249,2
2080301021,1968,44,18304,-94,9,31
2080302685,480,-612,17612,-110,-229,-22
2080304352,832,-428,16668,-216,-426,-97
2080306016,1112,-252,16528,-328,-22,-51
2080307731,1272,-104,16188,-166,-131,-168
2080309403,864,48,16904,-176,-214,-136
2080311093,468,4,15976,-214,-143,-175
2080312813,868,-468,15720,-227,254,-261
2080314511,796,900,16572,-304,-32,-242
2080316188,92,236,16676,-197,60,-222
2080317935,1036,340,15468,-172,174,-219
2080319603,1664,532,16636,-283,266,-278
2080321269,1512,756,17208,-321,88,-237
2080322931,1288,692,17524,-170,183,-73
2080324623,2348,672,14584,-143,127,-119
2080326300,1564,652,16928,-219,201,-51
2080327986,1928,1032,16360,-394,-131,-55
2080329695,1496,-384,17368,-135,135,-28
2080331359,1056,272,16316,-108,-54,-15
2080333022,868,-268,15420,-292,-11,-100
2080334683,492,448,16628,-461,-76,-79
2080336345,672,-96,15556,-341,185,7
2080338069,756,-140,16232,-104,295,-166
2080339764,1160,-84,16932,-279,426,-262
2080341474,1964,528,15652,-333,427,-196
2080343182,1712,360,16904,-234,531,-128
2080344887,1924,176,17692,-75,476,-162
2080346595,2792,-356,15452,-233,215,-85
2080348302,2508,-216,16728,-244,289,-135
2080351147,1996,152,18056,-182,-11,-133
2080352888,2652,608,16616,-205,148,-39
2080354600,2636,12,16708,-278,-135,-69
2080356310,2100,232,16260,-272,-144,-121
2080358017,2384,-52,16400,-203,170,-57
2080359737,2236,-168,15856,-92,209,-39
2080361443,1148,108,15496,-189,-77,-261
2080363135,1352,-100,14468,-273,-34,-216
2080364919,1252,144,16640,-242,422,-151
2080366690,2136,-780,15512,-45,556,-206
2080368424,1940,8,14992,-288,388,-285
2080370150,1992,0,15384,-367,578,-280
2080371832,1148,356,17560,-146,507,-199
2080373504,2168,416,17228,-87,760,-45
2080375176,1996,-484,18240,-58,631,-204
2080376844,1688,536,16880,-254,320,-141
2080378509,1500,1156,16880,-261,56,-140
2080380177,2288,788,16144,-267,194,-14
2080381873,1188,388,18000,-100,174,-65
2080383584,1016,188,16204,-222,-159,80
2080385293,612,624,16028,-198,8,-44
2080387002,1264,996,15428,-239,190,117
2080388721,1332,-384,15840,-72,247,20
2080390442,-40,208,16552,-191,149,27
2080392210,8,452,16124,-215,504,54
2080394003,200,152,16492,-116,513,110
2080395881,444,-472,17412,52,538,59
2080397754,764,-828,16684,-131,309,-30
2080399528,1528,-540,15592,-214,365,27
2080401267,1656,-648,17576,-93,348,-113
2080402981,1528,-384,17636,-167,224,-98
2080404674,1024,188,18068,-248,126,-110
2080406379,2588,40,15724,-235,-42,-166
2080408057,2244,-92,16872,-181,61,-165
2080409728,1352,568,17188,-177,15,-227
2080411396,312,228,16908,-223,-308,-173
2080413130,480,364,16304,-226,-66,-200
2080414860,644,520,16248,-187,-19,-215
2080416550,116,672,16544,-113,117,-21
2080418240,-296,532,16828,-108,-214,-58
2080419928,860,232,14540,-245,-173,-43
2080421623,456,-48,17292,-128,537,-139
2080423300,660,592,16796,-46,282,74
2080424977,828,-440,17284,-48,249,49
2080426652,2428,-524,15696,-143,483,-104
2080428319,2800,44,16524,-145,311,-166
2080429979,2296,216,17032,-201,114,-112
2080431696,1672,-368,17920,-177,38,-159
2080433378,2476,-448,16036,-311,-10,-173
2080435071,2304,188,17252,-222,-226,-297
2080436758,2492,344,16384,-221,-196,-232
2080438453,1804,-32,16948,-191,-190,-214
2080440145,1376,292,16312,-179,-116,-282
2080441888,1428,348,15924,-190,-135,-252
2080443619,984,664,16388,-143,-148,-128
2080445334,340,364,16576,8,209,-128
2080447045,1384,272,14880,-64,215,-84
2080448753,1096,-92,16428,-82,210,-167
2080450461,1304,548,16232,-63,403,-72
2080452197,2040,72,16592,101,630,69
2080453904,1896,-56,17228,154,509,-22
2080455613,2572,-524,16240,18,291,-69
2080457322,2388,268,16784,-4,315,45
2080459038,1848,-180,18088,133,104,-24
2080460748,2364,-68,16576,38,-127,9
2080462460,2052,-224,17464,-51,-27,-123
2080464151,1824,244,17068,7,-91,-26
2080465854,2080,444,16796,6,-200,44
2080467618,704,-264,17064,75,-83,-121
2080469341,860,-600,15968,-32,30,-27
2080471043,1064,508,15808,32,-51,1
2080472819,932,-220,15916,120,187,17
2080474503,916,228,15320,81,253,-25
2080476191,1072,-4,16596,35,266,-53
2080477921,976,340,16980,114,224,-70
2080479657,1380,428,16356,86,288,69
2080481364,564,-56,17228,150,459,54
2080483133,1276,-304,17036,113,165,-71
2080484847,1556,48,17080,72,59,-72
2080486602,1688,-84,17024,98,356,-14
2080488380,1512,28,17972,157,166,95
2080490144,2384,40,16940,92,-165,-43
2080491921,1692,540,17136,62,43,-40
2080493663,1288,888,17408,105,-63,93
2080495354,980,-204,16932,176,-285,33
2080497037,552,-524,15468,81,-276,-50
2080498716,372,-456,14764,46,-235,-67
2080500395,-440,64,16100,107,31,-35
2080502067,-580,136,16552,152,118,70
2080503798,420,0,15372,133,225,-26
2080505503,740,-564,16532,191,594,-99
2080507219,308,880,17088,144,407,-16
2080508940,928,332,15916,87,559,8
2080510665,1708,-100,17156,171,796,-3
2080512527,1616,476,18376,118,164,-18
2080514323,1628,716,16656,6,-168,27
2080516134,1712,72,17648,95,187,192
2080517819,1368,456,17096,60,-437,127
2080519488,1380,-28,16584,46,-477,36
2080521155,1344,900,16840,74,-46,106
2080523411,1224,360,15776,127,47,137
2080525140,696,8,16572,200,-30,9
2080526828,1032,-308,15500,61,14,54
2080528521,784,-196,15756,135,197,43
2080530218,1360,-296,16104,176,276,89
2080531924,1484,-48,16284,240,74,-82
2080533649,1584,-684,16280,158,35,-196
2080535406,2720,-108,15816,-10,332,90
2080537111,2708,1044,16844,206,91,-36
2080538819,2396,-424,17276,72,181,-4
2080540528,3020,236,16404,47,155,17
2080542235,2468,-324,16836,42,-129,-151
2080543941,2152,-128,16612,32,43,13
2080545675,2068,88,16512,44,-66,-1
2080547381,2144,-572,16200,93,-78,-96
2080549086,2696,500,15740,-31,-117,-206
2080550795,1708,508,16324,35,92,-120
2080552503,2304,432,15912,121,236,5
2080554206,2160,-168,15996,168,215,-127
2080555936,1744,-316,15896,58,226,-243
2080557645,1836,-212,15768,124,333,3
2080559355,1828,-352,16292,154,435,-50
2080561084,1092,-204,15768,77,242,-112
2080562805,1128,-276,15892,94,705,-264
2080564519,1220,-44,17796,216,1090,-247
2080566266,112,432,16704,195,368,-38
2080568070,2176,220,14772,172,990,-202
2080569794,1516,-564,19544,299,891,-202
2080571465,2424,760,17148,200,277,-140
2080573130,2776,72,15136,170,919,-76
2080574817,2540,196,18768,188,634,69
2080576610,3536,-132,15684,187,-79,6
2080578322,3368,240,15560,192,242,-73
2080580053,1140,132,16244,27,174,127
2080581738,304,-76,17680,123,166,-20
2080583420,868,-216,17056,168,64,-15
2080585106,900,-72,15156,118,-22,-32
2080586863,556,-240,16188,220,905,-54
2080588578,856,-268,16224,166,312,-52
2080590303,1568,-144,15432,118,229,-97
2080592064,1820,-464,16476,128,879,-227
2080593798,2136,976,17544,223,469,-50
2080595530,2664,328,16784,158,340,-102
2080597345,3028,132,16580,112,501,-127
2080599043,1840,184,18056,113,74,-215
2080600730,1192,308,16708,63,-151,-118
2080602410,1580,280,16388,22,7,-17
2080604090,1080,84,17428,3,-56,-114
2080605775,1320,-736,15904,26,-81,-229
2080607516,720,352,15480,16,-62,-207
2080609223,160,-200,15776,70,171,-237
2080610994,-240,-248,15608,309,82,-281
2080612783,744,1008,16268,85,12,-271
2080614523,168,596,16440,134,502,-194
2080616244,484,848,16232,229,476,-185
2080618044,464,1144,17128,144,342,-117
2080619740,1084,452,17712,44,397,-129
2080621425,1652,836,16984,156,318,0
2080623096,1288,612,17496,237,413,29
2080624789,1696,-24,16860,39,-96,84
2080626479,2008,-368,16992,-25,-91,-47
2080628222,1300,-124,17100,27,-160,-102
2080629937,1648,-176,16312,-11,-385,57
2080631667,1648,-156,16072,-98,-353,-17
2080633382,1108,-368,16240,-105,-166,-140
2080635102,1152,428,16180,-145,-314,-94
2080636819,868,208,16480,-97,-64,-59
2080638556,584,-48,15960,-85,160,-160
2080640268,1004,292,16392,-89,38,-126
2080641977,1128,368,16164,-85,79,-163
2080643695,1660,-220,16104,-47,384,-97
2080645452,1616,528,16044,-49,72,-51
2080647202,1776,40,15436,-48,100,-66
2080649001,2076,560,16692,-46,152,-135
2080650708,2076,596,17444,-81,220,-27
2080652405,2580,44,17164,24,165,-96
2080654097,2772,-116,16584,-31,0,-88
2080655805,1920,360,17472,-71,-24,-86
2080657506,1556,56,17240,-30,187,-15
2080659210,1240,316,17984,-76,-169,12
2080660920,1560,-344,16596,-93,-154,-45
2080662627,1292,188,15472,-179,-63,-46
2080664337,1516,-120,16248,-76,-22,33
2080666056,1424,-640,15912,-52,21,-46
2080667781,1748,-360,14908,-106,75,-153
2080669691,848,228,16312,-153,178,-134
2080671412,1628,-136,16812,-95,336,-122
2080673061,1508,-268,17380,-110,192,-102
2080674718,2100,-60,17080,-71,452,-175
2080676367,1964,112,16432,-62,53,-333
2080678014,2168,584,17092,-190,-15,-277
2080679698,984,104,17968,-145,24,-212
2080681388,1568,264,16536,-42,-157,-208
2080683104,972,80,17332,-63,-177,-266
2080684814,1240,844,15676,-210,-186,-182
2080686522,-80,920,17560,-96,86,-157
2080688231,540,508,15880,-110,-25,-144
2080689962,432,84,15592,-128,11,-168
2080691676,-56,832,16776,-109,326,-71
2080693402,104,-76,17212,37,347,-24
2080696372,1052,-280,15948,-147,282,-187
2080698142,732,272,17540,-216,216,-61
2080699859,1144,236,17480,-131,102,-53
2080701571,1572,56,17032,-180,-2,-114
2080703261,1868,-532,17504,-256,16,-219
2080704941,1756,-272,17176,-279,-218,-272
2080706622,952,60,17488,-260,-181,-192
2080708300,1068,436,16888,-260,-395,-181
2080710001,1280,-360,16328,-270,-294,-207
2080711749,1536,172,16584,-337,-375,-285
2080713474,1040,984,16220,-367,-424,-219
2080715212,1552,160,16092,-206,-282,-113
2080716937,1452,284,15172,-208,-215,-102
2080718630,572,432,16296,-243,-281,-250
2080720357,-108,420,16388,-343,-222,-41
2080722150,1244,620,15868,-89,272,-31
2080723839,1576,136,16144,-77,172,-12
2080725522,1368,204,16688,-215,27,-67
2080727203,1580,440,16204,-286,190,-9
2080728882,1624,300,17576,-163,339,21
2080730561,2668,252,15976,-120,159,62
2080732295,2252,-24,16132,-250,-229,-17
2080733992,1552,-36,17152,-269,21,-18
2080735699,1600,28,16356,-255,-132,77
2080737408,1372,-220,17160,-130,-2,20
2080739205,1252,-380,16460,-142,77,-76
2080741031,1896,20,14760,-291,4,-9
2080742889,1156,332,17176,-231,343,-17
2080744586,2700,136,16124,-160,324,93
2080746258,1868,-204,16116,-150,77,-42
2080747950,1420,188,17584,-237,192,-31
2080749638,2008,96,16828,-259,-26,-16
2080751308,2396,132,16724,-119,226,-8
2080753045,2160,-612,16268,-59,135,-83
2080754750,1508,128,16996,-186,-165,-102
2080756459,1624,-152,16144,-235,257,-80
2080758167,3088,-332,15344,-123,360,-68
2080759882,1772,-548,16992,-106,428,-78
2080761595,2232,-264,14768,-229,153,-242
2080763388,1488,-560,16764,-239,254,-253
2080765087,1584,324,17396,-212,226,-343
2080766763,2480,-112,15916,-296,199,-223
2080768438,1480,-136,17352,-207,214,-497
2080770121,1496,156,16396,-269,183,-501
2080771846,2796,624,15592,-362,145,-295
2080773596,2448,8,16968,-220,469,-330
2080775280,2112,500,16320,-108,100,-350
2080776965,204,920,16172,-300,-33,-279
2080778690,432,920,15908,-316,246,-221
2080780389,508,912,16964,-103,364,-63
2080782059,52,204,16576,-48,83,-125
2080783783,872,540,15240,-171,165,-111
2080785493,152,308,17208,-215,605,-42
2080787228,1308,-36,15208,-152,380,38
2080788960,1368,-24,17016,-115,615,-42
2080790688,1540,348,17488,-140,458,-25
2080792435,1632,-1092,17060,-42,425,-1
2080794256,2136,-604,15984,-152,298,-159
2080795956,2116,-1364,17012,-260,116,-218
2080797681,1544,-1016,17596,-241,96,-274
2080799366,716,20,17940,-248,-159,-289
2080801055,1300,372,16664,-262,-240,-258
2080802738,1448,540,16816,-226,-132,-260
2080804423,1284,12,16308,-217,-281,-214
2080806112,-160,4,16756,-209,-217,-326
2080807828,144,1364,15328,-256,-11,-250
2080809540,476,496,16344,-127,204,-214
2080811298,780,752,16368,-136,219,-53
2080813057,692,592,15620,-120,256,-117
2080814805,1444,616,15536,-229,136,-5
2080816515,1980,328,15384,-182,425,28
2080818197,1604,80,17660,-49,276,15
2080819872,1492,56,17516,-164,67,71
2080821558,1676,-532,16380,-222,23,50
2080823326,2112,84,16760,-214,6,23
2080825106,2360,-204,16980,-161,-28,-77
2080826862,1972,-176,16104,-285,-95,14
2080828588,1048,-48,16988,-253,-141,-49
2080830315,2000,140,15880,-263,-44,-116
2080832206,2440,-56,15620,-291,44,-54
2080834016,1312,36,16348,-239,28,-104
2080835895,968,276,15968,-239,121,-140
2080837602,1488,584,16240,-275,169,-75
2080839294,1840,216,16712,-169,432,-74
2080840973,1184,-8,16204,-143,292,-78
2080842687,2268,-64,14992,-263,125,-54
2080844367,1872,-148,15724,-208,494,-95
2080846101,2544,-140,16060,-132,350,-75
2080847796,1428,20,17552,-233,230,-59
2080849506,1960,-148,16404,-211,342,-102
2080851217,2736,-92,16520,-127,379,-115
2080852924,2516,240,17236,-160,259,-141
2080854634,1356,-184,17376,-180,351,-77
2080856372,1268,124,18044,-106,169,-128
2080858082,1444,208,16276,-155,112,-80
2080859800,2084,-172,15404,-224,128,-53
2080861516,884,448,17064,-206,238,-72
2080863222,960,140,15532,-145,173,-46
2080864938,1400,-292,15568,-123,324,-23
2080866736,1052,232,16440,-109,447,-54
2080868924,876,-336,16600,-60,562,5
2080870591,1500,-356,16016,-130,533,-76
2080872320,1540,-240,16736,-101,619,-136
2080874025,1900,192,16412,-104,476,-62
2080875695,1100,28,17900,-113,249,-2
2080877367,1432,-304,17152,-95,109,-99
2080879096,1796,-360,16860,-154,240,-133
2080880777,1244,332,17208,-81,117,-108
2080882460,1296,164,17352,-61,73,-35
2080884141,616,332,16660,-148,-29,-63
2080885822,652,20,17220,-39,236,-120
2080887500,580,436,16412,3,-43,-58
2080889239,1064,340,16116,-33,94,-4
2080890953,-120,-328,17396,21,250,-25
2080892693,932,-572,16340,86,148,-71
2080894444,932,-20,16156,-4,70,-119
2080896180,1240,-32,16728,-25,180,-86
2080897891,752,200,16900,45,114,-62
2080899682,1568,-420,16712,-6,-58,-121
2080901387,1252,-364,17220,25,-32,-186
2080903084,1212,264,16896,42,-121,-211
2080904775,764,68,17360,39,-121,-97
2080906465,1748,-200,16996,32,-135,-182
2080908193,1408,-204,17268,69,-197,-266
2080909940,1092,1064,16812,59,-362,-180
2080911646,912,1108,16492,28,-220,63
2080913415,1644,556,16672,120,-236,7
2080915209,1512,416,16936,182,-156,54
2080916953,1676,640,14932,96,-289,91
2080918666,1004,128,16468,110,-60,193
2080920470,1100,140,15748,155,-6,175
2080922162,1168,324,15720,127,-35,188
2080923835,340,736,16828,108,-9,227
2080925512,1236,188,15348,90,209,277
2080927181,984,-32,16464,82,256,218
2080928853,1804,136,16212,56,251,189
2080930581,2368,196,16480,61,68,140
2080932282,2508,-120,16152,81,314,180
2080933995,2548,-208,16592,79,331,149
2080935707,2764,-972,17348,53,-130,67
2080937415,2680,-500,16928,22,34,-66
2080939127,2560,-448,16360,-8,7,-32
2080940858,1132,-208,17572,10,-175,-41
2080942566,2648,-372,15588,-121,-232,-127
2080944277,1984,160,16104,4,-5,-251
2080945988,1700,744,16196,33,-7,-160
2080947693,1248,112,15648,-3,-27,-112
2080949401,1532,-400,16000,35,417,-192
2080951130,1364,-68,16556,97,355,-185
2080952837,1264,-32,16032,138,83,-236
2080954548,1004,-516,16180,-7,510,-170
2080956262,1688,176,16516,110,431,-196
2080957969,1928,-492,17728,135,271,-271
2080959678,2576,656,16360,113,214,-221
2080961614,2244,-12,16544,108,350,-153
2080963368,1520,-76,17480,66,39,-202
2080965123,2464,64,16372,63,-3,-221
2080966817,1364,-160,17228,136,-31,-280
2080968501,724,1260,16564,85,-82,-63
2080970180,1348,596,16720,29,-74,4
2080971918,1256,0,16532,96,-121,-83
2080973631,1044,244,15180,88,126,-68
2080975339,636,-8,15900,90,108,3
2080977051,488,-12,15636,86,194,32
2080978765,1496,-728,15588,92,426,-128
2080980482,552,-748,17136,158,498,-193
2080982227,1260,360,16240,54,293,-195
2080983938,1376,88,16836,-14,323,-172
2080985647,1492,0,17808,67,444,-242
2080987362,1656,-36,17444,134,84,-309
2080989084,1528,-156,18064,142,-1,-362
2080990794,1312,200,16360,101,74,-225
2080992532,1596,44,17436,126,-48,-216
2080994273,656,200,17120,22,-207,-281
2080996081,572,680,16448,21,-114,-210
2080997841,4,1152,16984,161,-89,-134
2080999573,964,88,15784,199,-39,29
2081001303,520,-52,15368,97,-89,-117
2081003115,92,760,16796,125,35,-153
2081004817,216,764,15716,105,-8,83
2081006504,744,276,16384,249,362,40
2081008195,1492,276,16856,161,339,14
2081009889,1776,172,16716,97,157,41
2081011579,1492,420,16616,135,221,-15
2081013287,1900,144,17564,194,194,140
2081015014,2052,148,16444,141,-58,182
2081016752,2040,-552,16544,112,-18,35
2081018483,1392,508,16436,-34,-340,145
2081020186,1496,556,16380,100,-103,159
2081021870,1576,-88,16132,124,39,216
2081023579,1184,-168,16628,-3,-264,133
2081025266,1116,164,16028,10,73,27
2081026953,1200,204,16404,121,177,69
2081028636,1568,284,16676,151,185,72
2081030318,1800,-616,15576,28,171,7
2081032030,2388,-164,16128,69,324,-8
2081033714,1216,-308,17556,152,293,2
2081035419,2204,-308,15972,71,104,49
2081037133,2548,-684,16096,29,141,-130
2081038850,2480,-868,16100,89,216,-220
2081041692,1940,-292,16012,26,162,-103
2081043441,2620,-472,16208,96,229,-201
2081045165,2616,-76,16812,29,74,-292
2081046876,3312,-32,15264,-3,215,-272
2081048569,2612,-32,16492,11,165,-225
2081050300,1096,156,17100,115,116,-291
2081051996,1352,160,16064,25,131,-306
2081053717,716,508,17216,63,5,-306
2081055477,908,1392,15932,36,71,-167
2081057227,1396,-52,15676,144,284,-82
2081059053,1196,456,16196,128,243,-162
2081060780,1416,544,15296,123,565,-136
2081062610,1324,140,16220,172,557,103
2081064420,728,588,17712,206,551,-10
2081066267,1680,-348,17092,129,658,-1
2081067958,1856,-188,15620,144,224,-51
2081069626,1552,136,16340,112,318,-45
2081071291,2196,-944,16584,89,229,-45
2081072955,2040,-908,16344,78,71,-231
2081074618,2008,-912,15772,54,207,-298
2081076326,1444,-312,16892,-31,41,-271
2081078022,1252,-604,16936,15,290,-412
2081079732,1980,-404,16380,42,278,-392
2081081441,1116,188,17072,-26,11,-498
2081083259,920,636,16108,-86,86,-475
2081085098,1300,676,17052,67,199,-346
2081086959,848,752,16644,70,-28,-304
2081088656,868,156,15832,24,-66,-375
2081090336,324,1168,16896,-3,157,-247
2081092044,448,1320,16248,126,79,-103
2081093770,748,572,16376,101,290,-74
2081095491,1152,724,16448,28,325,-84
2081097181,864,216,16856,10,242,-16
2081098880,788,524,17552,121,233,30
2081100572,2276,96,16308,129,240,60
2081102254,1120,-696,16864,95,208,-44
2081103940,1672,824,16608,-176,4,35
2081105628,600,-452,17664,-163,-53,43
2081107374,2340,728,16644,-15,49,23
2081109097,1504,-80,16580,-57,-58,23
2081110820,1180,104,16984,-227,-297,-18
2081112534,1368,100,16404,-206,-106,-28
2081114274,1596,276,15916,-87,-81,84
2081116081,456,64,17088,-94,-105,74
2081117955,212,344,15888,-248,-176,47
2081119659,344,308,15784,-208,6,9
2081121309,1604,-196,16124,-38,273,-56
2081122953,1528,-172,16280,-134,93,18
2081124600,1200,-76,15640,-168,90,-61
2081126252,1092,188,17012,-113,386,-134
2081127948,2436,1036,17032,-160,140,-52
2081129643,1916,-132,16900,-98,13,-97
2081131363,2056,508,16612,-97,42,-68
2081133082,1192,856,18352,-178,-239,40
2081134797,2616,-352,15840,-217,-254,24
2081136519,2608,20,16236,-165,-52,18
2081138298,692,428,17440,-188,-313,29
2081140036,1024,-152,15340,-304,-223,47
2081141740,1992,268,15932,-164,91,-73
2081143439,1684,76,16808,-106,236,36
2081145133,1788,-916,14320,-160,-20,-72
2081146834,1140,-392,16700,-232,148,-160
2081148557,1008,-56,16904,-171,224,-173
2081150253,2584,-284,15476,-111,235,-91
2081151953,1704,196,17056,-99,245,-230
2081153655,1756,92,17304,-207,235,-201
2081155353,1940,284,17620,-223,104,-200
2081157074,2660,348,16720,-81,353,-168
2081158787,2588,-60,16608,-127,152,-163
2081160535,1176,152,16788,-164,-8,-185
2081162329,1144,-64,16720,-130,-9,-224
2081164098,1232,504,15816,-275,-16,-100
2081165816,1408,96,16724,-112,217,-305
2081167531,1164,-504,15876,-139,-9,-265
2081169364,1352,-348,15792,-164,50,-311
2081171134,1448,-876,16264,-166,370,-420
2081172860,1396,580,16576,-183,330,-334
2081174559,1664,-164,16812,-127,337,-341
2081176312,1300,-284,17504,-142,193,-385
2081178078,1852,276,16132,-233,319,-410
2081179874,1048,548,16788,-278,52,-389
2081181598,928,696,17816,-199,36,-334
2081183283,1188,120,17440,-200,62,-363
2081184976,1736,860,16440,-228,93,-315
2081186665,1148,336,16720,-168,-50,-411
2081188351,1268,1340,16644,-170,-75,-342
2081190040,552,528,17284,-175,102,-185
2081191745,576,-12,15700,-153,-75,-68
2081193452,752,564,15968,-267,-122,-177
2081195213,632,736,16224,-354,-18,-84
2081196969,812,776,16996,-113,222,-20
2081198696,1484,444,16152,-146,13,111
2081200517,1000,-240,17220,-224,128,17
2081202215,1204,320,15712,-287,85,33
2081203895,944,180,18276,-154,26,92
2081205579,1812,-532,16348,-172,77,123
2081207261,1776,-980,16124,-183,41,4
2081208944,952,-32,16840,-249,-207,-110
2081210629,1540,-468,16492,-294,-140,-24
2081212338,2016,-544,16020,-143,153,-63
2081214898,1188,-292,16520,-187,-77,-204
2081216739,968,428,16732,-345,-54,-108
2081218535,1652,332,16320,-154,206,-111
2081220288,1524,244,16032,-137,75,-86
2081222021,1244,584,16124,-267,-40,-122
2081223690,1288,508,16296,-346,-32,-21
2081225349,2384,608,16580,-158,172,-1
2081227013,2248,472,15844,-95,219,54
2081228676,2000,388,15924,-242,-157,12
2081230335,844,212,16740,-318,107,56
2081231997,1672,-48,16372,-215,189,76
2081233722,1124,-72,16332,-134,137,51
2081235419,724,-56,16860,-229,227,-101
2081237121,932,36,15884,-314,125,-31
2081238821,1448,-480,17268,-117,507,-82
2081240522,1964,128,15720,-147,349,-48
2081242223,2008,-132,16568,-230,362,-100
2081243927,1928,284,15580,-220,483,-91
2081245641,2048,300,16492,-194,290,-41
2081247385,2104,704,16800,-269,116,57
2081249111,2644,-368,15660,-259,166,83
2081250822,2128,372,17456,-164,171,-51
2081252550,1356,116,17704,-196,12,90
2081254269,2652,-8,15588,-241,433,166
2081255977,1280,-444,17852,-136,391,113
2081257720,1292,4,15748,-202,-112,31
2081259491,1024,-220,15196,-277,173,-18
2081261224,1228,-680,16492,-170,341,-30
2081263008,1444,-1396,15112,-127,268,-124
2081264820,1200,-316,15900,-150,243,-436
2081266498,1304,-332,16832,-224,785,-330
2081268171,2860,-436,15248,-87,676,-444
2081269841,1940,56,17328,-61,682,-520
2081271513,2080,432,16584,-255,360,-502
2081273245,1628,460,17708,-241,329,-376
2081274944,1324,600,16872,-208,191,-418
2081276653,1988,860,17476,-238,77,-312
2081278358,1036,940,17140,-277,-159,-350
2081280098,564,820,16604,-237,-28,-301
2081281807,404,1484,17176,-227,-49,-205
2081283538,1108,1060,16392,-170,69,-2
2081285251,232,124,16112,-153,185,-5
2081286960,-204,208,15732,-228,174,16
2081288665,80,152,16108,-200,173,27
2081290374,1148,-252,16136,-109,484,109
2081292104,1224,-224,16364,-230,342,92
2081293856,1072,-608,16388,-277,192,72
2081295721,1552,-324,16928,-153,441,-40
2081297481,2148,-500,16540,-111,257,-10
2081299203,2024,-200,17556,-214,64,-6
2081300926,2028,-352,16536,-298,44,-7
2081302649,1236,-12,17932,-104,-41,-153
2081304453,1340,348,17012,-211,-92,20
2081306182,944,496,17212,-181,29,-80
2081307892,420,452,17860,-156,-86,-43
2081309611,544,400,15940,-116,-198,70
2081311320,1348,524,16040,-51,269,152
2081313021,952,128,16596,-64,69,171
2081314803,1240,200,14908,-115,-23,162
2081316494,320,244,16328,-48,421,128
2081318232,1528,0,16380,-54,273,212
2081319957,1920,40,15876,-73,328,222
2081321670,2196,-104,16316,-96,398,165
2081323370,1768,-36,16944,-110,194,154
2081325052,2852,420,16084,-84,264,195
2081326723,2064,-228,17256,-4,358,152
2081328392,1848,352,16520,-223,-150,120
2081330084,1004,284,16328,-176,79,69
2081331762,1400,12,16772,-69,161,92
2081333428,1376,-412,16496,-102,-200,124
2081335165,1380,200,15884,-222,46,-39
2081336863,1704,408,15576,-207,233,34
2081338575,1328,468,17240,-42,109,56
2081340288,1820,84,16600,-77,391,118
2081341992,2160,164,15592,-151,120,42
2081343700,1740,200,16740,-77,288,61
2081345434,2356,-40,16468,49,386,104
2081347151,1888,-472,16784,-96,-83,101
2081348861,1668,-952,16888,-61,175,-86
2081350568,2080,-604,16240,-45,145,-89
2081352276,868,-560,17164,-21,13,-85
2081353981,1148,-804,16012,-2,357,-202
2081355758,900,-768,16756,36,203,-286
2081357461,1952,-772,16036,-17,233,-332
2081359165,1960,264,16324,-28,392,-260
2081360951,1864,-144,17188,95,292,-277
2081362730,2276,380,16548,111,320,-279
2081364439,2052,1372,17232,-32,-19,-252
2081366224,1192,816,18148,101,96,-30
2081367911,1420,660,17036,193,-85,-21
2081369627,1072,512,17380,85,-305,-42
2081371308,576,76,16708,-23,-149,41
2081372988,736,324,15372,165,-45,94
2081374670,760,-352,16016,205,90,115
2081376414,1592,-312,15344,33,119,-1
2081378116,1080,-408,15744,-20,125,-178
2081379826,1156,-236,16644,200,283,-40
2081381543,1704,-476,16328,211,343,-44
2081383253,1296,-784,17532,31,237,-96
2081384959,1268,-424,16468,123,-28,-159
2081387832,1396,476,17524,45,140,-8
2081389591,832,972,18044,7,-11,-21
2081391319,1772,1132,17576,80,-184,43
2081393033,1904,860,16476,197,-155,172
2081394989,1152,144,16032,120,-39,132
2081396861,444,-216,16460,-15,-231,123
2081398597,832,-196,16128,54,-263,104
2081400289,712,32,16480,229,40,127
2081401971,724,-440,15960,173,380,96
2081403652,640,-232,16924,141,59,52
2081405330,1564,-512,16196,57,-66,-60
2081407015,1352,-600,15944,237,507,-120
2081408715,1076,76,16436,149,80,9
2081410424,1052,-212,16692,45,29,-81
2081412173,2180,264,16796,55,41,-131
2081413880,2488,528,16112,203,82,-80
2081415585,1832,688,16184,134,63,-36
2081417355,1248,988,17208,-135,-391,58
2081419076,1208,532,17456,90,-37,12
2081420787,1828,320,16016,233,44,103
2081422468,1080,300,16652,98,-81,85
2081424151,1252,-64,15852,-114,-136,65
2081425812,1796,-60,16456,198,176,140
2081427614,1640,232,16364,174,64,105
2081429398,1596,-328,15436,15,85,145
2081431125,1792,-204,16000,-49,103,76
2081432799,1852,-492,16960,223,163,-51
2081434480,2716,-136,15628,164,158,0
2081436158,1660,32,16684,-42,144,-18
2081437897,1576,-356,16568,63,272,-146
2081439615,2560,-164,15864,134,282,-2
2081441330,2240,-380,17088,218,358,-34
2081443026,2444,32,15140,116,244,-91
2081444727,2244,-8,16296,15,190,-94
2081446429,1560,236,16636,52,296,-74
2081448153,1976,-60,16436,141,256,-80
2081449856,1268,136,16920,81,38,-176
2081451555,1096,-128,16416,22,262,-145
2081453255,560,124,17040,135,189,-208
2081454980,1560,-96,16620,184,423,-109
2081456694,1612,-16,15612,104,174,-206
2081458419,1476,-196,16484,109,287,-243
2081460140,1028,976,16372,112,338,-186
2081461929,1848,308,16612,193,482,-38
2081463703,1472,-104,17264,174,193,-169
2081465519,1368,336,16368,87,182,-121
2081467230,640,740,17304,146,253,-81
2081469009,1360,144,16480,184,149,124
2081470721,1428,240,16556,73,-149,36
2081472392,1680,-60,15648,70,32,-9
2081474061,996,1152,16492,74,12,237
2081475727,944,-36,16204,107,144,161
2081477398,916,248,16480,122,150,146
2081479122,1380,252,16172,167,170,179
2081480817,1156,-768,16808,314,424,182
2081482525,820,-244,16280,152,214,48
2081484235,976,-336,16312,55,194,66
2081485942,832,-456,17044,221,212,-10
2081487652,1496,-8,16352,164,186,35
2081489384,1804,328,16788,35,178,12
2081491089,1756,-176,17256,64,58,-12
2081492796,1560,600,17000,219,-66,-145
2081494501,980,900,16544,143,69,-53
2081496216,648,732,16560,71,151,43
2081497987,860,740,16636,87,-157,-74
2081499767,668,636,17024,192,18,37
2081501474,1096,408,15796,94,216,196
2081503159,-216,36,17088,56,185,123
2081504842,1116,304,15812,125,148,20
2081506521,1740,-344,15744,169,335,43
2081508206,1432,20,15876,147,467,81
2081509891,540,100,16252,30,36,53
2081511607,2132,640,16512,39,115,32
2081513342,2240,-192,16800,146,334,58
2081515133,2064,552,16292,57,116,87
2081516925,1524,412,17676,-41,-133,-59
2081518668,1888,592,16928,-31,104,88
2081520419,2316,256,16500,148,149,126
2081522140,1900,12,16532,94,1,76
2081523924,1404,116,15816,-220,-327,112
2081525769,724,-140,17164,-8,79,78
2081527514,964,-616,16300,91,167,9
2081529203,848,-276,16360,55,-83,-79
2081530936,1336,-576,15468,-96,293,-53
2081532606,1740,-716,15556,80,402,-126
2081534278,1656,-120,15940,26,245,-158
2081535959,2044,-436,15276,-7,408,-212
2081537638,1992,568,16692,18,342,-202
2081539312,2024,360,17816,69,359,-97
2081541039,2456,232,16760,107,239,-115
2081542741,1956,-132,17472,82,204,-164
2081544452,2120,700,16992,-39,49,-89
2081546170,2180,688,16520,-12,-65,28
2081547895,1740,276,17348,94,171,51
2081549610,1740,316,15596,-25,-198,52
2081551348,960,476,16684,-49,-5,12
2081553062,1036,404,16092,-36,-55,88
2081554779,680,60,16448,66,252,41
2081556500,1496,-520,15096,14,293,14
2081558218,1264,68,15672,-59,218,-61
2081560796,1436,212,16516,-88,528,28
2081562559,936,-288,17696,31,489,-63
2081564324,2040,328,16192,-53,276,-60
2081566041,1468,288,17760,-43,342,-114
2081567724,2616,132,17224,-130,418,22
2081569418,1540,252,16668,-60,-91,-139
2081571110,1636,616,17444,-172,-32,19
2081572870,2196,364,16840,-204,-113,87
2081574567,1596,-56,17232,-196,-103,4
2081576266,672,140,16480,-158,-211,-115
2081577958,716,204,16336,-120,-219,-140
2081579650,512,-196,16360,-190,-36,-49
2081581349,-120,-400,16356,-36,105,-127
2081583114,-36,92,15368,-149,89,-170
2081584826,568,-88,15328,-138,320,-124
2081586543,1236,-108,16504,-184,335,-66
2081588259,1040,820,17412,-115,193,-160
2081589972,972,808,16512,-101,193,-106
2081591679,1560,792,16632,-148,240,-27
2081593390,1404,-40,17580,-149,195,-98
2081595096,1104,584,17260,-161,-120,0
2081596843,1128,580,17132,-210,-211,34
2081598592,1004,1032,17608,-304,-124,177
2081600315,1816,-32,17224,-222,-151,229
2081602027,1728,220,15712,-142,-390,26
2081603845,1108,572,15788,-280,-326,121
2081605563,464,-380,15956,-279,-253,98
2081607252,1212,-212,15968,-127,7,23
2081608942,1008,-420,15196,-239,-176,-3
2081610631,640,-156,15172,-318,-130,-24
2081612316,872,-192,16500,-246,354,-102
2081614062,1640,-60,16328,-174,327,-70
2081615743,1096,-520,16684,-148,242,-166
2081617421,1768,780,16540,-319,354,-157
2081619092,1892,400,17824,-231,345,-64
2081620763,2360,88,17352,-97,188,-97
2081622482,2400,356,16264,-213,-117,-55
2081624214,1768,596,17536,-296,-95,-42
2081625927,1908,108,17036,-221,-194,10
2081627606,1800,124,17204,-219,-291,25
2081629274,1596,-372,15880,-168,-142,-73
2081630944,2080,484,14852,-389,-192,22
2081632609,1108,536,16488,-352,-69,39
2081634323,1072,-376,15808,-130,174,34
2081636057,768,-76,15524,-88,220,14
2081637775,628,-396,14936,-152,214,7
2081639483,1208,84,15428,-228,94,-127
2081641192,1276,-464,18088,-106,652,-63
2081642900,2212,-72,15720,-98,344,-10
2081644668,1820,-368,16444,-141,228,-80
2081647598,2952,-20,17708,-284,309,-21
2081649359,2448,-24,17000,-77,154,-79
2081651080,2272,504,16160,-260,-120,53
2081652810,1604,724,17456,-325,-192,-39
2081654621,2220,340,16016,-293,-83,107
2081656337,400,228,17304,-80,-65,-1
2081658041,820,-104,15552,-208,29,0
2081659739,1552,-112,15420,-174,118,14
2081661431,1800,-560,15868,-120,318,-54
2081663197,588,-596,16052,-85,328,-47
2081665023,1488,164,14976,-131,346,-35
2081666709,1708,532,16408,-277,286,-94
2081668393,2216,288,15736,-328,363,-8
2081670076,1044,380,17620,-121,467,-136
2081671752,1460,216,16900,-147,308,-105
2081673434,1724,312,17496,-225,284,-69
2081675162,1520,-52,18308,-132,261,-116
2081676868,1168,48,17484,-49,170,14
2081678592,900,180,16724,-160,-51,40
2081680312,384,672,17484,-274,-58,29
2081682029,1484,192,16600,-278,-47,128
2081683764,1480,-20,15808,-128,-40,89
2081685523,1312,-332,15048,-139,33,-3
2081687244,612,-132,15916,-255,74,-42
2081688964,956,-368,16452,-198,289,-11
2081690702,-64,-468,16756,-95,347,-110
2081692436,156,120,16464,-123,242,-116
2081694168,1024,184,17032,-207,307,-141
2081695964,2188,644,17256,-219,258,-65
2081697726,1256,-160,16912,-128,122,-154
2081699443,904,744,16856,-186,-14,-140
2081701150,1144,704,18168,-161,61,6
2081702862,2128,948,15688,-251,-130,85
2081704566,1364,-124,17436,-122,31,70
2081706344,888,732,16164,-134,-181,42
2081708048,1332,88,15872,-285,-47,185
2081709720,488,92,17168,-236,-44,70
2081711428,1000,-28,15492,-223,14,76
2081713128,-36,-176,16416,-109,140,-5
2081714818,1780,-432,15768,-242,251,68
2081716525,1864,8,15948,-220,290,-58
2081718198,1568,-272,15852,-193,336,7
2081719866,748,32,16516,-190,245,-82
2081721541,2324,-48,16160,-262,151,-42
2081723227,2244,-392,16440,-286,364,-23
2081724916,1672,20,16620,-202,270,-132
2081726597,1032,204,17308,-223,134,-174
2081728274,1612,1124,16704,-324,46,-110
2081729945,2096,-36,17684,-153,377,-79
2081731632,2328,332,16304,-198,162,-2
2081733909,1680,364,16880,-178,48,-50
2081735595,2344,508,16044,-198,135,99
2081737273,2136,-156,16264,-137,229,145
2081739004,1104,464,16256,-185,-142,-10
2081740707,808,152,16480,-119,242,-42
2081742423,2480,-768,15392,-137,457,163
2081744134,1180,-1124,17072,-10,467,-5
2081745853,2116,-300,14064,-161,386,-50
2081747569,1404,-392,17048,-133,608,-31
2081749354,1460,96,16356,-127,422,-46
2081751056,2332,-552,16208,-44,522,-65
2081752752,2644,560,16728,-222,420,-39
2081754443,1616,172,17552,-160,355,-126
2081756156,1772,1032,16792,-167,100,-92
2081757870,1912,12,17668,-111,362,9
2081759655,1720,504,16456,-182,215,6
2081761378,580,428,16660,-154,133,5
2081763100,172,912,16768,-125,102,-2
2081764902,564,-468,17040,64,434,35
2081766672,1200,340,15256,-95,139,111
2081768390,440,-372,17108,-102,413,-46
2081770117,1112,-48,15728,-101,404,-34
2081771814,1248,-364,16908,-29,575,-43
2081773489,1372,-124,16532,-138,434,-59
2081775255,1188,-576,16848,-101,443,-89
2081777068,1164,152,17304,18,459,-144
2081778798,1492,-884,17348,-14,302,-110
2081780575,1156,-292,16144,-176,115,-223
2081782275,644,32,17536,-145,273,-253
2081783966,748,1008,17564,-82,-51,-66
2081785685,1568,568,17508,-7,72,-21
2081787379,1348,612,16800,-76,8,17
2081789070,312,220,16308,-30,-78,50
2081790771,768,624,15924,-24,-56,75
2081792467,16,424,17464,6,113,122
2081794175,564,16,16288,-19,24,141
2081795898,1080,4,15388,-4,195,58
2081797647,528,-48,17268,19,237,116
2081799384,784,-652,15748,49,259,47
2081801109,572,-660,16740,67,322,-54
2081802914,652,-220,16652,-5,230,-1
2081804607,1472,-400,15968,10,176,0
2081806285,1384,-8,17744,48,109,-60
2081807954,2312,264,16284,-66,-47,-34
2081809626,1344,520,17144,-78,-66,-12
2081811311,1464,804,17564,-18,132,155
2081813102,1284,520,17540,-1,-8,146
2081814801,1236,156,16476,-68,-270,67
2081816476,1324,1028,16780,-49,76,125
2081818151,944,8,16872,31,105,187
2081819822,1184,-276,16380,141,64,119
2081821492,1612,172,16584,45,-40,71
2081823214,1500,-288,17080,123,212,51
2081824903,2308,-436,16172,133,122,45
2081826585,1208,-396,16656,16,44,17
2081828249,1956,-772,16732,24,9,-86
2081829908,2108,-684,16660,62,1,-129
2081831563,1592,-124,16580,42,178,-102
2081833275,1744,-328,16232,42,27,-24
2081834960,1284,-636,16964,61,16,-163
2081836656,1976,364,15708,123,207,-183
2081838352,2408,316,16400,77,111,33
2081840068,1704,204,16556,56,255,12
2081841760,1940,284,15728,40,88,-72
2081843455,1272,404,17556,155,86,-112
2081845158,1396,288,16228,85,130,44
2081846865,1040,104,16092,76,219,34
2081848571,1124,-184,17008,160,236,-39
2081850279,1448,484,16140,139,73,13
2081851986,1720,196,15988,136,248,68
2081853793,1620,-48,16480,176,464,47
2081855497,1836,100,16748,123,197,-40
2081857192,1792,104,17140,294,330,-88
2081858886,2724,276,16344,204,242,55
2081860583,652,28,17344,94,87,59
2081862274,1480,64,17080,79,35,35
2081863965,1756,396,16256,203,80,191
2081865752,1596,-112,15948,197,42,171
2081867517,872,168,16040,28,70,111
2081869208,324,156,15676,54,93,158
2081870891,-80,-28,15848,188,346,152
2081872573,1540,328,16092,294,435,263
2081874330,996,-276,16460,177,311,168
2081876122,1172,-448,16920,228,688,79
2081877814,1292,-252,18276,257,358,152
2081879499,2168,-336,16444,225,331,127
2081881190,1920,156,17356,136,322,66
2081882878,1304,244,18192,60,-59,65
2081884625,1752,84,16960,160,-81,36
2081886324,1408,-52,16492,197,25,-11
2081888050,-200,104,16668,142,-333,-105
2081889752,-200,672,15284,51,-309,-85
2081891459,-520,128,16528,98,156,11
2081893159,-204,844,16316,218,275,-52
2081894853,336,856,15668,180,185,-30
2081896571,496,624,16688,165,309,39
2081898300,504,380,16252,175,591,51
2081900049,1240,640,17660,300,434,92
2081901748,1700,76,17120,203,114,80
2081903443,2028,-200,16904,-39,212,63
2081906167,2036,156,16924,123,-264,219
2081907884,1812,-160,16812,-48,-373,140
2081909555,1544,-188,16392,-147,-319,65
2081911261,960,460,16828,-61,-316,106
2081912966,876,-152,16720,45,-214,106
2081914659,1508,-160,15560,43,-151,69
2081916344,1072,-120,16020,54,-130,-15
2081918025,944,108,16088,19,126,129
2081919708,1160,-92,16280,75,158,119
2081921384,1304,-248,16644,128,342,24
2081923056,2256,-336,15756,186,299,-57
2081924731,1740,-12,16684,164,236,-89
2081926468,2300,-344,15736,40,375,3
2081928171,2248,-92,17232,142,302,-114
2081929887,2688,-444,16932,182,160,-170
2081931596,2648,436,16896,131,124,-140
2081933303,2180,-8,16816,110,117,-161
2081935013,1396,-212,16384,80,30,-87
2081936746,1916,-120,16452,177,15,-186
2081938454,1288,104,16784,155,63,-188
2081940164,1160,176,15544,121,308,-95
2081941874,1640,556,16456,37,113,-5
2081943579,1892,-428,16448,175,304,-74
2081945287,2104,920,15200,176,360,25
2081947058,1008,564,17116,123,405,63
2081948756,1324,332,16416,82,229,15
2081950448,2240,76,16456,126,400,47
2081952141,1932,640,17024,229,345,81
2081953828,1508,244,16192,148,252,112
2081955518,1612,540,16944,95,213,82
2081957294,1788,-576,17068,238,507,93
2081959018,1864,-12,15724,183,185,132
2081960741,844,-400,17208,121,322,140
2081962452,820,-584,16804,85,351,52
2081964161,2068,-912,15984,135,331,-23
2081965871,2136,-364,16336,80,234,-75
2081967776,264,100,17140,1,272,-68
2081969505,884,440,16744,6,128,-56
2081971164,1180,72,17316,114,262,-145
2081972822,1256,-184,16104,110,238,-109
2081974477,1000,-180,16604,135,293,-141
2081976135,52,372,16008,82,146,-151
2081977834,-108,336,16204,37,348,-81
2081979526,-648,644,17260,63,411,-83
2081981242,-20,840,17100,92,330,-10
2081982955,960,624,16392,23,283,29
2081984660,872,312,17648,31,327,5
2081986367,996,408,17000,36,261,43
2081988109,1516,248,17328,36,185,98
2081989820,1128,428,17332,-173,-246,107
2081991526,1572,244,16504,-243,-283,162
2081993233,1376,376,16848,-134,-293,123
2081994939,924,464,17740,-104,-357,69
2081996650,200,-12,16964,-291,-391,122
2081998416,264,-276,16512,-238,-365,50
2082000144,664,-252,15676,-154,-79,36
2082001850,624,-144,16328,-189,-274,12
2082003555,144,-204,15500,-238,-84,-49
2082005261,672,112,15672,-201,64,-85
2082006973,1616,-332,16160,-238,25,-28
2082008687,1780,48,16676,-201,137,-192
2082010367,1704,52,16296,-221,91,-175
2082012045,2168,-416,16872,-231,15,-275
2082013749,2648,-476,17224,-212,78,-331
2082015469,2404,-244,16952,-220,13,-347
2082017150,1672,-248,17356,-193,-219,-405
2082018807,2040,-160,16100,-296,-396,-457
2082020475,2404,68,16500,-348,-135,-409
2082022146,2140,-88,16644,-290,-132,-382
2082023814,1336,356,16160,-207,-272,-437
2082025486,1628,804,15240,-326,-266,-412
2082027156,1304,1020,15404,-326,3,-329
2082028826,1996,740,15824,-141,231,-228
2082030527,1012,784,16456,-70,36,-188
2082032253,1120,632,15772,-127,119,-182
2082034000,2116,460,15216,-129,349,-159
2082035786,2708,320,16612,-123,372,-99
2082037550,1376,-124,17320,-116,223,-142
2082039273,2044,276,16260,-177,138,-142
2082041053,2488,192,17224,-165,268,-99
2082042836,2868,-444,16896,-155,163,-81
2082044600,2076,-608,16924,-139,106,-177
2082046335,2232,-604,16000,-164,23,-205
2082048078,2164,-808,16736,-231,54,-243
2082049855,2180,456,16368,-299,52,-181
2082051544,972,284,17292,-139,14,-204
2082053228,1792,320,15532,-164,-124,-161
2082054910,1828,4,15656,-205,73,-245
2082056593,876,468,16472,-187,323,-189
2082058274,520,332,16704,-74,337,-156
2082060053,920,408,15320,-74,272,-169
2082061765,1212,-444,16328,-88,523,-235
2082063475,1140,476,16580,-78,447,-184
2082065189,1048,636,17080,-85,413,-107
2082066901,1096,216,16488,-57,337,-77
2082068702,1420,536,17640,4,369,-39
2082070562,1524,612,17256,-74,59,82
2082072251,1280,-20,17032,-51,62,152
2082073918,1148,208,16184,-79,60,117
2082075580,340,244,16884,-112,-66,108
2082077787,840,908,16864,-285,-262,379
2082079455,760,-172,16384,-99,176,318
2082081168,420,-300,16548,-20,146,264
2082082865,-92,-88,15896,-244,-165,234
2082084576,344,-404,15828,-253,161,183
2082086285,388,-356,16304,-117,363,157
2082087995,84,-240,16196,-121,215,116
2082089744,1040,-228,15896,-239,94,9
2082091479,1584,-276,16860,-263,319,2
2082093189,780,-68,17928,-103,272,-118
2082094897,1644,-252,17040,-116,70,-172
2082096605,1812,-468,17360,-249,-37,-211
2082098330,1952,20,17100,-209,168,-242
2082100105,1160,-88,18500,-160,-11,-231
2082101837,1364,160,16164,-248,-402,-179
2082103535,964,48,16000,-326,-171,-284
2082105229,724,372,16740,-310,-287,-276
2082106923,676,364,17048,-272,-244,-204
2082108617,1328,124,14756,-225,-33,-262
2082110317,1236,-32,15312,-264,215,-311
2082112087,712,340,16956,-274,107,-228
2082113811,1128,28,16600,-233,131,-232
2082115495,1288,-120,16020,-149,430,-180
2082117154,2060,-12,16768,-216,232,-307
2082118810,2176,132,17064,-304,82,-279
2082120471,2100,92,17108,-237,144,-234
2082122179,2320,184,16676,-178,166,-267
2082123865,2556,44,17136,-306,-64,-257
2082125573,1796,660,17456,-336,-144,-271
2082127275,2312,384,17032,-184,74,-192
2082128973,2176,-48,16424,-103,-1,-190
2082130691,2224,200,15796,-226,-92,-276
2082132468,1444,700,16212,-335,35,-176
2082134181,1548,524,16108,-144,6,-88
2082135944,2052,212,14624,-158,245,-42
2082137661,1444,88,15868,-199,243,-190
2082139370,1144,316,16232,-257,318,-54
2082141079,1996,-116,15764,-76,521,-58
2082142857,2360,-216,15780,-95,565,-29
2082144563,2008,-232,16832,-175,548,-206
2082146256,2048,-276,16840,-230,397,-63
2082147953,2368,-116,17204,-164,424,-125
2082149648,2452,-328,16776,-133,476,-123
2082151336,2480,-508,16404,-114,200,-281
2082153090,1524,-244,16912,-294,52,-167
2082154798,1128,-388,16592,-170,222,-211
2082156506,1196,432,16372,-126,269,-157
2082158214,716,460,16572,-180,146,-165
2082159927,600,444,16328,-197,391,-131
2082161675,500,832,16924,-149,472,-98
2082163487,800,500,16904,14,485,-36
2082165186,1548,1176,15992,-232,318,166
2082166865,896,596,17164,-102,379,125
2082168544,1196,1284,16880,-19,420,255
2082170291,1000,236,16916,14,397,379
2082172106,296,84,16548,-62,11,328
2082173858,248,-104,15912,-85,73,314
2082175536,36,156,16784,-124,285,462
2082177206,648,-792,16348,-152,166,439
2082178871,1216,-1196,16276,-116,545,207
2082180538,1200,-1068,17064,-96,472,145
2082182219,756,-744,16804,-115,324,175
2082183909,1368,-1000,15328,-152,486,67
2082185619,584,-960,17224,-122,547,-57
2082187329,1520,-440,15964,-189,49,-110
2082189042,1640,-132,16688,-220,38,-132
2082190828,856,268,17948,-245,195,-84
2082192538,572,148,17448,-178,31,-172
2082194276,544,1056,17360,-128,-46,-213
2082195990,744,732,17160,-132,187,4
2082197736,256,336,17476,-49,163,7
2082199477,676,696,16056,-19,-26,-38
2082201219,488,656,16756,-147,37,-7
2082202930,764,192,16400,-74,140,67
2082204641,720,52,16056,-33,103,90
2082206332,1164,-64,16368,-115,139,59
2082208026,1884,132,16116,-187,120,-38
2082209717,1404,-64,16580,-168,248,-2
2082211399,1700,-296,16612,-133,237,37
2082213120,1792,-500,16428,-185,-15,-101
2082214864,1720,-460,16364,-285,96,-141
2082216553,1664,-300,16676,-189,200,-126
2082218207,1484,-488,16164,-188,-92,-195
2082219857,1544,-584,16380,-254,-81,-312
2082221509,2172,-8,15560,-259,76,-317
2082223166,2064,-56,16472,-147,236,-195
2082224874,1848,428,16668,-110,160,-309
2082226601,2384,476,16352,-149,195,-284
2082228335,2416,488,16600,-84,324,-277
2082230044,1460,580,17512,26,227,-241
2082231778,2192,540,15972,-63,243,-142
2082233484,1720,-16,17360,-40,299,-138
2082235265,2024,256,16608,49,147,-197
2082237015,2016,392,16104,50,83,-108
2082238710,1752,8,16824,62,207,-25
2082240400,2132,-224,16164,85,169,1
2082242091,1948,-120,15968,100,83,-87
2082243785,1048,-56,16228,-1,241,-13
2082245550,1040,-72,15724,6,295,58
2082247262,1008,-212,16524,94,236,6
2082250118,1256,48,16900,84,340,16
2082251862,1408,420,16980,112,400,80
2082253577,1472,44,16744,106,264,56
2082255286,856,744,17544,154,192,72
2082256993,772,1376,17324,207,259,205
2082258691,1428,880,16968,126,113,342
2082260375,1240,512,17208,141,132,342
2082262055,1940,88,16144,209,156,294
2082263737,1164,660,17444,205,44,346
2082265416,1572,376,16336,131,45,508
2082267094,944,-692,16828,221,175,395
2082268762,1120,-1204,16628,280,97,298
2082270443,1136,-992,15936,222,-58,246
2082272167,792,-1048,15832,109,27,249
2082273853,196,-776,16816,86,133,189
2082275520,1008,-1216,16336,93,130,109
2082277252,1096,-648,16712,176,119,-41
2082278922,1132,-120,16144,101,212,-27
2082280593,648,20,16584,88,179,-99
2082282263,1068,-164,16912,143,170,-176
2082283930,1432,456,17016,127,47,-154
2082285597,1124,512,16684,167,71,-132
2082287319,1236,744,16420,108,36,-88
2082289020,1472,352,17140,95,-124,-173
2082290729,868,720,17176,145,-77,-139
2082292527,288,808,17100,214,-77,24
2082294371,-96,984,16972,127,-232,48
2082296169,532,-36,16564,54,-26,79
2082297998,784,604,15764,166,-106,88
2082300053,768,280,15892,117,-20,174
2082301797,836,-124,16052,-6,40,108
2082303498,944,-20,16268,114,141,-32
2082305190,2044,288,15712,68,127,30
2082306886,1320,-688,16624,91,159,-98
2082308573,2092,-584,16316,-26,273,-86
2082310237,2052,-468,17536,68,270,-100
2082311906,2412,-372,16908,172,-12,-179
2082313602,1956,-232,16772,46,60,-199
2082315291,1628,36,17124,-31,-43,-239
2082316985,1772,-552,17116,42,-169,-343
2082318734,2492,4,15800,-5,-61,-179
2082320502,1396,568,16360,35,-95,-262
2082322225,1512,304,15876,-25,-119,-238
2082323903,2308,-60,16244,49,103,-238
2082325581,1948,196,16240,181,209,-339
2082327260,1848,472,15576,156,291,-206
2082328999,1148,788,16112,33,23,-185
2082330699,1552,40,17092,204,375,-272
2082332405,2256,32,15672,276,464,-152
2082334114,1004,540,17428,203,252,-191
2082335819,1684,64,15796,41,227,-88
2082337524,1956,208,16300,309,460,-124
2082339260,1936,356,16684,343,479,-99
2082340970,1776,596,15880,163,238,25
2082342675,1592,156,16396,117,300,14
2082344382,1180,392,18024,315,644,0
2082346088,1584,656,17176,265,230,110
