Time_us,Accel_X,Accel_Y,Accel_Z,Gyro_X,Gyro_Y,Gyro_Z
393197598,1908,1720,16472,16,-155,-30
393199433,2560,2632,15928,-2,-104,249
393201131,4012,1712,16620,180,122,171
393202803,4020,2200,17436,11,-9,91
393204523,2936,1364,16052,-358,-296,313
393206274,1320,1452,16968,165,123,-309
393208080,2212,2896,16328,113,-46,-277
393209775,1820,1132,17000,-391,-159,170
393211465,2372,1108,16468,-38,-95,-507
393213150,3700,2848,16448,75,32,-394
393214832,3708,3424,16684,-105,-76,-180
393216562,2268,2148,16736,-288,15,46
393218389,1816,2392,17008,-84,-141,-378
393220134,2356,3260,16516,-54,-270,-161
393221844,2796,3592,16744,-15,-166,-114
393223540,3520,2224,16356,-296,-185,328
393225241,3248,388,15744,-36,-255,-196
393226944,3916,2092,15548,98,-116,-512
393228664,4216,4044,15832,-213,-123,266
393230401,3072,1348,15436,-240,59,327
393232100,2780,1912,16216,-196,-94,-131
393233796,3412,2280,15860,-239,-104,-42
393235509,4240,2940,15872,-167,-32,6
393237294,4240,1136,16276,-370,205,309
393239058,3460,56,15920,-224,-85,-163
393240843,2940,1180,16472,-78,45,-337
393242574,3508,2292,15928,-96,8,-20
393244273,2636,1228,16836,-315,-23,309
393245957,2364,128,16580,-243,-72,93
393247643,4144,2520,16344,88,-206,-455
393249400,5188,3704,16404,-173,12,242
393251099,3484,-504,15164,-215,301,397
393252841,1912,-872,16280,32,203,-106
393254545,2652,2104,16844,82,-172,-545
393256242,3996,2860,14908,-116,229,222
393257936,3624,1876,15516,-75,357,153
393259699,4196,1168,16884,-71,296,-81
393261430,4040,2004,16296,-68,72,-241
393263219,2800,1464,15936,-55,266,42
393265020,1808,1220,17088,-83,-3,-172
393266773,2492,1448,15808,-102,53,-303
393268550,2668,2544,16756,-11,-115,-292
393270360,4284,2560,17248,38,93,-43
393272058,3212,2148,15876,-287,-62,160
393273788,2104,1192,15872,-208,105,84
393275549,2052,3572,17384,121,-53,-549
393277302,3748,3812,15144,-340,-44,355
393279029,3696,2012,15328,-301,145,280
393280747,3852,2240,16772,-135,415,-211
393282514,3448,2236,16168,-215,18,210
393284268,2556,712,14988,-131,27,46
393285984,2412,808,15812,-39,303,-135
393287680,2052,2080,16508,-73,206,135
393289369,2420,1884,16252,-43,-177,14
393291100,4772,2436,16372,-87,39,-89
393292783,4560,2320,16944,-232,220,180
393294529,2704,268,15380,-65,253,186
393296261,1352,1496,17980,27,-246,-323
393297937,2072,2036,16576,-102,-201,-162
393299657,2128,1772,16320,-60,138,-66
393301411,2880,1612,15940,-25,22,-84
393303097,3928,4212,17596,-63,-77,-401
393304776,4340,4712,16024,-365,-195,142
393306460,2056,480,15468,-237,64,298
393308145,1760,1912,16456,-20,-18,-397
393309822,2108,2756,16100,-176,-12,-142
393311555,2472,2088,16384,-116,-104,-56
393313266,4980,2428,15812,-76,-157,-133
393314978,5100,2536,15756,-246,144,87
393316692,3592,2100,15912,-258,226,36
393318403,2264,1664,17128,-172,-60,11
393320112,2680,1288,15740,-223,38,-119
393321845,2396,2016,15820,-194,74,-189
393323552,2168,2020,17108,-21,176,-63
393325314,3848,2676,16228,-222,-237,-22
393327063,3748,1672,16164,-227,170,-4
393328779,3420,2124,16388,-133,83,-158
393330493,3024,3004,16492,-188,73,280
393332275,2380,1596,16144,-313,-131,163
393333979,3028,1548,15392,-241,81,-27
393335674,3808,2064,15736,-157,-41,-123
393337501,4348,2164,16356,-137,257,73
393339286,4916,1840,16240,-276,93,217
393341022,3016,-308,15220,-248,74,-7
393342734,3048,264,15564,-9,250,-350
393344431,2896,3048,16792,-48,347,-19
393346114,2396,1804,16560,-230,-67,222
393347795,3120,1844,16724,-175,-148,-89
393349476,4696,1880,15624,-176,121,67
393351164,4948,828,15108,44,95,-29
393352914,5004,1348,15616,122,342,-94
393354624,3720,1488,16368,-238,-95,93
393356342,3656,2172,15272,13,260,-106
393358058,3972,3224,16232,-45,215,81
393359768,5372,2524,15028,-145,336,279
393361495,4028,724,16836,-159,317,177
393363331,3708,916,14516,24,316,-86
393365037,2804,3352,16332,4,261,-197
393366736,2932,3564,15308,-199,318,186
393368482,2528,1636,16820,-138,447,134
393371080,4100,1008,15984,-90,315,-116
393372819,4148,1396,17120,-15,404,-198
393374538,2836,2328,15888,-47,447,157
393376238,1176,1340,17912,-182,108,27
393377907,1776,1688,16588,-108,-29,-160
393379573,3004,3092,16596,32,379,-76
393381240,3540,2176,15624,-59,432,425
393382900,2384,1624,17608,-76,311,191
393384561,3328,1912,15164,-113,241,135
393386264,2344,2288,16020,170,225,124
393387982,2028,2188,16448,-71,263,572
393389739,1404,1032,16980,-165,225,473
393391461,2152,1380,16168,61,33,97
393393179,3276,2080,17252,248,97,116
393394920,3668,2880,15856,25,78,264
393396676,1768,1516,18136,-234,314,426
393398373,1884,1280,16596,-63,21,71
393400044,2360,1932,16336,-77,27,-43
393401705,2644,2136,15968,-215,79,130
393403362,2044,820,18016,-259,168,29
393405064,2916,600,15560,-185,-284,-359
393406745,2936,1008,16172,6,-13,-540
393408444,3864,3728,15372,17,173,-281
393410134,2824,3444,17148,-309,37,144
393411842,2772,2328,16020,-344,-54,178
393413539,3400,1708,15580,86,332,-358
393415292,4088,3188,15156,-36,182,94
393416999,2508,1540,16524,-158,287,177
393418707,2692,1620,15928,-76,318,-122
393420413,3028,3104,16896,60,198,12
393422147,2960,1884,15520,-138,200,318
393423853,2736,1156,16340,-118,332,104
393425583,2508,1944,17700,-192,121,-17
393427292,2652,1476,16372,-69,-46,-31
393429000,3212,2488,16720,-211,-118,-45
393430708,3112,2000,16884,-327,15,173
393432413,2904,860,16632,-302,-130,-97
393434120,4044,1564,15404,-117,-156,-281
393435832,4684,2476,16172,-122,-73,-375
393437554,5200,3040,15692,-402,362,214
393439381,3664,304,14888,-251,254,105
393441201,3420,1452,15888,-50,122,-260
393442955,3564,1256,15516,-8,345,20
393444678,3620,1176,15104,51,471,83
393446483,2656,956,17136,113,252,-126
393448175,4068,2008,16464,159,227,-169
393449854,4608,2492,16096,128,321,-71
393451563,4396,1952,16456,-49,565,126
393453259,1808,1416,17920,-2,293,-14
393454936,1448,1224,17208,134,136,-211
393456674,1488,1628,18024,108,-87,-290
393458375,3048,1988,15720,-84,-5,-10
393460090,3272,1072,16360,68,83,-199
393461823,4492,1568,16424,204,37,-321
393463548,5280,2676,15896,-13,-162,68
393465263,3500,1276,14312,-20,160,273
393466985,2680,804,17024,310,262,-73
393468742,3328,1368,16264,201,54,-67
393470480,3868,1692,14980,171,182,41
393472185,4568,2716,16016,422,573,39
393473882,4064,2916,16604,223,343,279
393475585,2048,1048,16664,86,276,235
393477368,2520,2692,16676,315,375,-267
393479042,2996,2608,15788,121,281,363
393480710,1676,1096,17328,85,205,390
393482379,2476,-8,17280,228,101,-148
393484055,2952,1628,17784,310,-49,-181
393485717,2244,2392,17528,215,-237,-13
393487424,1440,1796,16324,151,-69,33
393489108,2820,2780,17356,225,-90,-292
393490811,3852,3608,16380,79,-127,39
393492517,3308,504,14912,116,23,272
393494215,3744,1052,16124,352,262,-263
393495962,2476,856,16772,270,91,-12
393497809,2388,1592,15744,322,-55,-241
393499581,3012,4044,15552,285,341,-94
393501336,2788,2280,15532,30,201,362
393503083,2564,836,17480,297,218,-220
393504777,2944,2220,17472,275,-14,-372
393506430,1888,2160,16168,149,306,201
393508159,1352,2388,17436,351,142,-185
393509830,1608,3060,18024,224,11,-28
393511505,1568,1876,17788,-55,-196,191
393513186,2844,1716,15868,303,-68,-36
393514864,2664,2500,17316,326,-96,-111
393516537,2780,2584,15856,39,-227,394
393518216,2236,2052,16716,168,-204,-189
393519943,3476,2984,15000,70,-67,231
393521644,2896,1920,15800,75,-20,224
393523384,4320,1084,15560,135,143,28
393525116,3676,1260,16892,127,12,-51
393526833,3908,2184,15004,77,-45,-140
393528546,3180,2288,16060,165,352,24
393530258,2408,2684,17384,155,201,66
393531974,2068,1336,16720,4,-98,104
393533879,2852,1796,16616,188,-43,-258
393535781,2900,2772,16932,222,-76,-260
393537611,3872,3124,17244,-56,79,97
393539464,3016,1524,16744,-112,-221,-8
393541335,2404,1124,17552,54,-337,-122
393543626,4016,1112,15740,215,-117,-215
393545347,4332,1444,16252,27,-110,72
393547012,4436,264,14796,158,-82,-221
393548663,5328,948,14428,282,-39,-462
393550317,6252,3664,14124,217,241,-294
393551991,5296,2864,15468,-105,484,395
393553700,4424,480,14716,-43,506,383
393555383,2704,-588,15880,401,261,-504
393557064,3408,2836,16464,394,269,-421
393558741,3452,3412,16300,276,337,-72
393560510,3588,2352,16760,203,306,145
393562215,4472,1472,17956,229,167,-154
393563923,4132,2284,16168,287,205,-77
393565629,2988,2184,16872,289,221,107
393567558,1532,1172,17000,273,122,-106
393569389,3044,1812,16104,197,70,-161
393571159,4128,1704,15404,323,131,-43
393572864,4944,2588,16548,174,107,-104
393574542,4916,2252,15188,-39,128,224
393576215,2868,148,14948,286,441,-126
393577895,3424,3560,15852,345,176,-371
393579571,3880,3732,15120,113,301,68
393581268,3592,2116,15600,43,621,79
393582940,3684,176,16752,409,472,-209
393584611,3780,1072,16788,424,261,-421
393586296,2060,1732,16660,163,408,14
393587977,492,1844,17528,417,492,-274
393589738,296,2676,18004,339,187,-222
393591430,372,1316,17672,214,-150,-12
393593102,3148,3112,16976,445,202,-374
393594772,3024,3864,17744,293,139,-85
393596444,1880,1420,16892,67,5,210
393598176,1152,1412,17032,285,6,-345
393599897,2380,2976,15884,185,-80,-235
393601654,2536,3208,15668,95,82,-55
393603326,2812,1844,15796,48,237,-13
393604989,4216,1836,16388,203,93,-472
393606649,4508,3300,16024,162,87,-409
393608313,2204,3204,14596,-79,152,232
393609977,604,2160,17520,177,192,-262
393611685,1688,2944,16596,167,60,-263
393613380,1632,2988,16612,-56,-248,169
393615092,3844,2376,15976,281,142,-16
393616801,3260,3192,18040,240,186,10
393618507,3248,1756,15956,-54,-32,502
393620217,1384,1812,18208,222,-324,-218
393621953,2864,3884,16628,79,-9,214
393623663,2364,3060,17248,-72,-131,500
393625371,2992,792,16476,-115,-67,265
393627079,4072,460,16056,-130,-297,-185
393628786,4732,1404,14972,-16,-92,-293
393630492,4272,3032,15436,-104,-55,-145
393632226,2988,1240,16316,-368,-6,182
393633932,2664,740,15784,-231,-154,-441
393635645,3112,1360,15488,-103,-2,-490
393637361,3852,2620,15604,17,-159,-423
393639130,3628,2640,16764,-247,-221,-89
393640916,4572,1564,15900,-114,-17,-476
393642752,4920,2856,15392,-63,57,-560
393644434,4160,3644,16480,-27,139,-81
393646101,2280,2092,16488,-155,97,136
393647764,2712,1064,16052,-74,45,-25
393649426,2572,2176,16408,131,97,-228
393651089,3080,2800,16532,99,95,44
393652796,3580,2540,16232,15,-33,126
393654491,4964,1080,15884,-110,43,25
393656203,5280,1288,15088,-20,348,-185
393657910,3752,2568,15544,-53,188,-148
393659617,3380,2172,15920,-176,182,28
393661325,2316,1012,16300,-177,144,-185
393663096,2692,2212,16708,-52,172,-336
393664797,3028,1900,16000,-144,-60,-60
393666492,3048,1620,16428,-103,47,-241
393668189,3744,2260,17288,-108,54,-184
393669902,2548,2248,16296,-6,52,-103
393671612,1472,3080,16924,46,-78,-248
393673309,2056,3220,17056,-41,165,183
393675014,2704,1624,15820,-17,7,261
393676696,2744,964,16420,44,58,120
393678374,2708,1892,16076,99,-140,-153
393680056,2648,2168,16856,4,113,142
393681725,2460,1744,16332,-143,-74,128
393683396,2636,712,15792,-122,-30,-361
393685095,4188,4352,16556,-5,134,-499
393686800,3200,2436,17012,-379,124,358
393688491,2556,336,16716,-425,-125,224
393690178,1420,-488,17120,-26,104,-537
393691861,2116,2864,16348,75,-82,-474
393693578,1596,3492,16672,4,-83,-89
393695261,2088,3208,16604,-126,-341,-28
393696927,4404,2484,16108,-104,5,-31
393698596,3896,2476,16688,-44,53,-49
393700325,2504,3004,16036,-18,-39,164
393702034,1104,1776,17164,-95,-236,152
393703693,2196,1892,15692,-57,-150,-38
393705422,2420,3084,15912,-141,-191,125
393707100,3380,1820,16336,-37,-106,243
393708784,5416,1988,16656,-243,4,45
393710475,4140,1400,16108,-429,-257,289
393712164,2000,708,16152,15,87,-249
393714554,2828,2848,15948,-107,116,-100
393716310,2348,1784,16232,-419,-170,46
393718003,2844,1144,16704,-117,-203,-303
393719694,4428,1760,15636,-48,-12,-368
393721392,3888,2636,16916,-260,93,-37
393723112,2136,1488,16664,-280,-198,-140
393724822,2236,2696,17228,-90,-71,-227
393726552,2392,2612,16988,-137,-189,-34
393728267,2596,2720,17060,-72,-114,-14
393729974,3928,2328,16604,-186,-253,80
393731678,4296,1272,15724,-189,-201,170
393733376,4616,1532,15256,-21,-125,-283
393735147,4276,2772,15100,-230,-105,50
393736881,3472,2336,15748,-271,-87,-49
393738587,4100,2172,14376,-334,-28,-8
393740332,4492,1584,14896,-222,150,-360
393742102,4992,2548,16156,-233,318,-185
393743839,4168,684,15896,-394,111,-49
393745535,4192,236,15752,-225,191,-417
393747242,3512,1516,16240,-172,381,-265
393748922,1964,1848,17964,-106,211,-304
393750581,1984,2560,17316,-198,-100,-275
393752273,2644,1848,16572,-168,-35,-188
393753951,4672,2740,15816,-57,249,-264
393755618,3348,2584,17176,-115,231,-42
393757335,2868,1908,16236,-66,-311,-202
393759033,2660,1884,17120,-135,-58,-190
393760746,4376,1548,14576,-141,189,-150
393762456,3740,1624,16344,-117,227,-192
393764171,5380,1148,14628,-158,142,-368
393765880,5648,2380,15524,-142,346,-467
393767670,5152,2352,14184,-210,509,-170
393769527,2016,1264,15980,-148,549,-439
393771271,1764,2928,16936,-203,200,-514
393772973,2528,2116,16240,-186,224,-234
393774682,3556,1768,16008,-81,325,-266
393776387,2896,1636,18332,-186,147,-149
393778164,1596,1016,16756,-10,-20,-315
393779863,1532,3472,17088,147,-80,-440
393781565,2264,3644,16892,-26,24,-109
393783298,2240,2464,16140,-351,17,75
393785061,3452,2000,16448,14,130,-422
393786772,4804,3376,16540,-268,2,143
393788553,3752,1536,14928,-473,94,527
393790332,1496,-456,15948,-31,316,-382
393792150,2484,2468,16068,-65,120,-233
393793847,1940,1284,15940,-81,295,11
393795508,2392,1392,16256,67,312,-239
393797165,4400,2468,15836,-148,-31,-144
393798889,3064,3028,17668,-189,367,-116
393800651,2544,3024,16708,-139,233,74
393802433,236,1580,17840,-116,-71,226
393804186,1044,1188,16816,-136,-213,-198
393805909,1644,1992,17772,122,33,-197
393807680,4320,2232,15576,10,-128,72
393809460,4376,2464,16824,-70,84,-121
393811217,3812,3224,15888,-433,-146,224
393812932,1752,524,16468,-16,-64,38
393814608,2340,1288,15972,82,-136,-325
393816286,3512,1920,15960,-362,88,31
393817961,3124,1236,15112,-179,-170,-180
393819696,4820,1816,14244,94,-18,-444
393821408,6052,3588,15116,-232,204,5
393823124,3652,1592,16268,-360,355,63
393824834,2552,1968,16392,-180,38,-200
393826638,2800,2440,15612,-110,212,-289
393828555,3028,2856,16444,-102,294,-128
393830355,2864,1592,17484,-182,136,126
393832097,5208,1380,14552,-187,-23,-255
393833777,4368,2624,16492,-141,233,-225
393835454,4732,2744,15328,-196,377,22
393837128,2356,1308,16708,-374,59,120
393838801,2592,1648,16168,-279,-24,-546
393840515,3644,2852,15352,-240,186,-458
393842278,5084,2460,15204,-182,341,-119
393844049,4636,1576,16888,-461,86,-5
393845769,4168,196,15028,-269,409,-290
393847461,3196,884,15500,-123,339,-459
393849155,3232,1716,16036,-50,699,-256
393850845,2312,2008,16620,-290,248,-156
393852526,2024,1908,16508,-148,235,-266
393854212,3792,3876,15644,-93,162,-351
393855896,3548,1748,16688,-222,490,88
393857579,3548,744,17160,-156,371,-51
393859268,2356,884,17384,-162,113,-105
393860955,2728,1732,15076,-53,139,-405
393862655,2208,3020,16392,-53,349,-291
393864398,2928,2032,16796,-178,338,94
393866128,4296,1024,16448,-144,235,-264
393867839,3932,1844,14368,-119,255,-161
393869552,3040,1564,16128,-2,534,-107
393871294,2608,1832,16284,-109,224,-138
393873017,2764,1896,15896,-187,271,-170
393874713,3804,2048,15332,42,494,-126
393876400,3496,1868,16324,-22,508,-53
393878080,2864,1052,16508,-85,241,-132
393879759,1496,2140,17464,81,359,-152
393881466,1008,2488,16992,59,95,-49
393883152,1100,2420,17680,29,263,-115
393884809,2412,2332,17176,-50,233,145
393886942,3240,1140,16624,87,53,46
393888673,2968,1768,16472,8,121,53
393890372,2044,1264,16872,-14,265,103
393892114,1748,948,16860,113,28,-152
393893859,2408,2516,17700,115,-261,-96
393895564,3160,2728,15200,-17,-213,147
393897259,2544,1168,16856,43,130,73
393898948,3584,1552,16560,86,-53,-2
393900639,3496,1300,16028,58,-112,77
393902401,2932,1648,15860,83,-121,-73
393904109,1880,980,16916,145,249,68
393905820,3156,1876,16220,230,22,-346
393907532,2964,2872,17560,195,-109,-244
393909241,4156,3168,15700,82,203,142
393910959,3112,600,16240,9,-14,244
393912706,2268,1480,17120,280,-208,-484
393914423,3572,3080,16200,268,-21,-259
393916133,3556,2888,15216,49,-75,329
393917841,2676,832,17008,78,-19,1
393919552,3736,1108,15936,175,21,-289
393921271,4328,3084,16092,210,-84,-91
393923016,3520,2860,15992,20,-76,249
393924739,3332,896,15844,-17,202,139
393926454,2860,792,16016,106,101,-105
393928167,3816,2700,16436,195,95,-159
393929879,4024,2304,15164,-81,121,156
393931597,3076,1656,15520,-127,283,78
393933315,2976,912,16188,206,314,-346
393935038,3364,3596,16616,33,-67,-221
393936761,2160,2080,17048,-105,71,117
393938483,2468,1920,16228,-48,69,-29
393940214,2336,692,16772,158,-42,-171
393941946,3952,3744,16804,152,-193,-461
393943710,4004,3252,17064,-247,78,358
393945435,3832,1112,15632,-243,46,327
393947105,2484,-52,16720,217,40,-379
393948789,3772,2492,15296,256,26,-349
393950536,3924,3008,15868,205,247,-25
393952280,3324,1116,15068,-40,38,420
393954109,3584,-512,15500,384,149,-485
393955882,5652,4452,15524,300,222,-281
393957619,5720,3684,15540,-12,377,355
393959340,3584,228,15132,-23,501,106
393961087,1732,-244,16768,271,424,-348
393962862,1716,2752,16760,356,124,-582
393964651,2052,3064,17076,-35,96,165
393966454,2280,1328,15776,-34,271,238
393968265,2480,840,17796,361,17,-516
393970045,3712,3672,17084,258,-5,-293
393971811,2024,2532,17304,-64,-37,306
393973562,1756,724,15844,64,89,223
393975284,1756,912,16236,409,-39,-622
393976962,3772,3904,16180,389,117,-192
393978628,4028,3756,16796,264,175,206
393980291,3908,1568,14036,55,244,347
393981969,2404,1204,16208,369,191,-274
393983641,2532,2756,16112,423,278,-355
393985310,3488,3016,15472,143,266,257
393987046,3048,2192,15828,51,236,119
393988771,2416,-192,16860,230,224,-9
393990446,2912,224,16724,456,179,-371
393992138,2444,2584,17664,228,-46,58
393993813,756,1224,16268,130,29,32
393995486,840,1848,17644,275,15,-293
393997169,2584,3348,17284,170,-408,20
393998866,4220,1344,16868,129,3,28
394000541,3876,1280,17372,111,-116,-117
394002242,2932,268,16072,221,110,-6
394003988,2572,2448,15220,526,-250,-674
394005953,3648,5120,16576,31,11,166
394007785,3120,1176,14720,23,304,374
394009554,3312,28,15880,224,172,-67
394011353,5456,2116,15108,441,43,-535
394013158,3784,3708,17556,46,349,268
394014934,2124,296,15316,181,533,64
394016670,2216,2636,17168,229,0,-565
394018396,2208,3724,16576,96,112,-258
394020130,2516,2716,17240,117,49,-13
394021860,3288,1268,16904,-66,-103,-12
394023577,3232,584,16568,-15,34,-220
394025317,2440,3140,17248,296,-174,-640
394027121,2360,3124,17632,-137,-345,188
394028842,2460,1140,15340,-131,-82,-204
394030561,2844,1244,16060,94,23,-455
394032272,4132,3972,16236,315,-89,-322
394033978,4636,2632,15244,-246,-182,456
394035698,4088,1060,14564,18,345,-263
394037427,4148,1920,15676,190,389,-353
394039110,3772,2428,15088,123,266,17
394040759,2616,2564,16592,-130,11,-31
394042407,3284,2064,15148,-132,185,39
394044117,3692,1688,16224,79,178,-234
394045819,3560,2248,16928,20,182,-85
394047546,2952,1348,17632,-96,44,132
394049235,1548,-544,16600,-13,-191,-205
394050929,2400,116,16856,371,114,-642
394052612,2884,3484,18568,202,-71,-438
394054285,2900,3184,17472,-113,-322,52
394055961,3760,1924,15192,118,104,-648
394057693,4880,4780,16668,-3,-2,-131
394060619,2472,1320,15360,12,84,-42
394062416,2080,1152,15752,22,12,-177
394064148,2440,2668,16340,108,149,-330
394065858,3964,2968,14324,190,162,27
394067577,4320,2872,17260,-28,245,-70
394069291,4104,2472,16784,-160,175,154
394071038,1204,768,17044,61,4,-42
394072766,380,1268,16744,244,-51,-237
394074457,1160,2176,17420,212,-46,-379
394076148,2100,2960,18064,-166,-261,240
394077837,2240,-752,16576,38,-239,-70
394079518,2620,196,17588,239,-326,-698
394081198,2964,3552,17112,32,-415,-120
394082893,1096,1416,15088,-233,-529,91
394084577,1444,1264,14292,-65,-430,-431
394086250,4400,4692,16600,153,-162,-842
394087952,5728,5284,16264,-386,32,345
394089737,4860,540,14536,-240,476,31
394091447,3364,808,16860,-97,341,-356
394093126,1308,2336,17040,37,93,-269
394094792,1668,3700,15460,92,260,23
394096453,1400,3188,16392,-65,104,293
394098116,1064,784,17468,-37,-420,75
394099830,4308,2844,16040,209,-31,-342
394101537,3908,3844,17532,12,-147,37
394103254,2500,1236,17132,-354,-270,536
394104966,1572,-1296,16892,-123,-476,-352
394106675,3092,2288,17256,-45,-188,-568
394108382,2980,2616,16664,-262,-271,-180
394110116,3632,1412,16916,-268,-266,-408
394111842,6760,1512,14564,-208,336,-390
394113550,3304,2172,17380,-259,49,-339
394115258,3072,2812,14460,-90,56,-435
394116966,2344,4188,15988,-221,-80,-203
394118672,2476,2772,15584,-269,2,37
394120382,2568,2240,16608,-75,-165,-78
394122090,4288,2208,15568,8,-12,-173
394123795,5012,2992,16500,-54,61,-33
394125503,4008,2584,16632,-117,72,169
394127210,2896,960,15752,-36,28,-32
394128916,1908,2512,17468,-90,-3,-124
394130651,2368,1700,16288,-258,50,80
394132361,2372,1204,17196,-188,-102,-113
394134067,3720,988,15780,-241,-146,-145
394135780,4476,1784,15760,-218,45,-422
394137556,3244,2212,15904,-388,-80,-152
394139345,2504,1532,16120,-403,-15,-188
394141255,2712,2260,16208,-218,-191,-569
394143059,2996,3136,15756,-318,-218,-198
394144784,4924,3380,16828,-228,95,-287
394146582,5648,1836,14788,-239,-71,52
394148375,4264,1432,15756,-178,34,-24
394150091,3352,1160,15188,-164,127,-49
394151772,2248,1892,16740,31,276,-206
394153490,2700,2656,16124,-42,87,-38
394155194,1888,1308,16072,-88,38,9
394156872,4052,3148,15880,-108,206,-200
394158550,3748,908,16856,-312,77,193
394160226,4412,-424,15936,-199,105,-40
394161956,2620,568,17708,-160,-25,-395
394163654,2172,1660,16076,-169,49,-407
394165354,2012,2416,16828,-155,10,-364
394167044,2764,2560,16480,-278,-126,-172
394168747,3672,1628,17340,-150,-17,-217
394170551,4488,2076,14932,13,34,-226
394172319,3148,2844,17136,-10,-28,-269
394174049,2908,2932,15680,-229,-74,203
394175759,3036,1668,15392,78,120,-152
394177455,3844,2836,15552,96,93,-166
394179154,4048,1688,15752,-287,274,456
394180853,3932,880,15816,202,262,-413
394182552,3544,3152,17244,-99,231,258
394184220,2312,1796,15716,-282,214,459
394185881,1844,1532,17268,74,498,-403
394187587,2416,2204,17348,-249,-105,132
394189286,3176,808,16160,-170,11,66
394190956,3416,2572,16884,29,256,-361
394192684,2204,2724,17544,-386,-173,273
394194364,1620,1392,16552,-373,-242,246
394196078,1576,2120,16744,61,-271,-441
394197765,3268,2860,15936,-137,-142,287
394199449,2408,1516,16088,-192,-184,350
394201129,3924,1076,15680,3,-232,-262
394202867,4616,2808,16684,87,-8,-198
394204573,4976,2616,14084,-153,409,312
394206289,2888,1924,16220,-165,492,201
394207999,2860,1700,16008,-213,387,-89
394209734,1948,1548,16524,-72,119,-212
394211446,2540,1820,15316,-20,161,-192
394213182,2872,1624,16804,-135,372,-181
394214892,2044,1720,17404,-323,-166,-184
394216600,1664,2468,17312,-23,-152,-664
394218304,2676,4400,17104,-72,-200,-570
394220050,2492,2752,17120,-437,65,412
394221764,1836,1352,17620,-260,-276,-257
394223496,2920,1788,16372,-82,-301,-346
394225205,3524,2644,15996,13,-176,-385
394226912,4508,3732,15528,-178,213,208
394228619,3452,1704,15948,-276,-156,119
394230326,3612,1760,15652,-201,-141,-7
394232916,4288,2076,14492,29,273,74
394234712,4180,2100,16572,-322,-70,355
394236419,3692,252,15504,-412,-88,420
394238122,3604,628,15188,1,43,-494
394239816,4688,2408,16144,-116,254,-168
394241511,3820,2092,16588,-490,50,-52
394243204,3884,1616,15804,-420,228,-128
394244921,3712,2096,16168,-184,205,-527
394246650,2984,3588,16748,-437,211,-88
394248376,2748,2096,16436,-492,288,85
394250060,2208,600,16216,-128,99,-376
394251719,2596,1932,16148,-121,-171,-267
394253377,2740,1988,15892,-86,40,-187
394255100,3012,2336,16004,-75,-63,-62
394256778,4716,316,13724,33,143,-102
394258468,5256,860,16304,294,340,-624
394260149,6148,5072,16344,-223,266,-92
394261828,3276,216,14352,-87,1100,88
394263508,2768,4188,19300,-33,740,-610
394265242,1648,3764,19340,-584,200,284
394266942,524,856,14636,-257,330,-343
394268653,5012,3300,15340,-220,477,-111
394270365,3956,1144,17924,-470,498,265
394272126,2912,-36,16092,-310,-178,-202
394273885,1512,788,15776,42,-28,-463
394275699,2648,2928,17672,-243,-169,-182
394277404,4156,1736,15308,-291,103,112
394279103,3576,980,17764,-13,118,-347
394280798,5892,2180,15700,26,298,-331
394282488,4580,4132,15168,-203,362,180
394284186,3052,2620,15180,-157,583,436
394285956,2076,1676,16768,45,272,-259
394287672,2880,2052,14600,-180,415,219
394289460,3924,-40,15264,154,421,-177
394291237,5048,900,15536,168,667,-353
394292960,2272,1000,16532,-237,-73,126
394294669,608,1320,17068,177,262,-585
394296468,2540,3976,16744,-283,-89,-150
394298152,3360,2364,16000,-304,216,-38
394299821,3364,2192,17408,-146,-2,-354
394301501,3428,680,17244,-218,201,-209
394303181,2684,960,17192,-237,141,-438
394304853,772,1640,16696,-78,225,-338
394306573,1732,3760,16252,16,1,-457
394308271,1812,4184,16496,-176,-88,-42
394309981,2880,1816,15576,-198,35,46
394311691,4124,2216,15960,220,232,-360
394313399,3816,2780,17308,199,10,-160
394315106,2512,2252,16588,-76,-71,380
394316840,2200,1540,15696,-64,82,-81
394318550,3364,1944,16676,64,126,-126
394320256,3032,2224,17400,16,-87,-29
394321967,5208,1212,15376,-130,-3,95
394323679,3220,1160,16412,-244,-31,19
394325388,2896,568,14856,-193,4,-117
394327121,1924,2340,17248,86,-108,-567
394328833,2972,3180,16560,-255,123,235
394330539,3504,-36,14912,-216,99,80
394332247,2356,-236,16152,19,75,-299
394333954,4148,2268,16320,222,267,-448
394335664,3556,2964,16784,-49,66,104
394337447,2596,2048,16216,-24,29,-56
394339149,2548,2340,16328,76,201,-91
394340845,3008,2564,16892,211,32,-2
394342539,2968,2528,16828,-43,-219,242
394344234,4024,1712,15304,-73,19,98
394345926,3676,1512,17116,-10,104,-106
394347673,2660,1216,16240,154,-181,-45
394349445,3240,1576,15576,-40,-55,-119
394351124,3072,1056,16304,-130,23,-15
394352774,2728,912,15720,69,93,-343
394354427,4164,2064,15532,134,-91,-248
394356080,4028,2404,16348,25,-48,-209
394357729,4568,2856,15968,-233,54,-51
394359381,4792,1844,14700,-181,233,-1
394361070,3836,1244,15836,107,405,-347
394362776,2640,1928,16844,100,278,-177
394364493,2000,2316,16752,133,137,-189
394366204,2488,2676,15652,112,278,-85
394367912,2164,2280,17028,257,223,-3
394369716,3476,3712,17552,249,88,46
394371434,2872,1036,16288,-7,-165,540
394373174,1928,-60,16288,137,10,246
394374913,1876,-152,16824,307,40,-252
394376624,3400,2416,16408,307,-35,-491
394378321,3624,4200,16608,146,-47,-140
394380075,3768,296,15132,-143,171,353
394381775,3828,852,16844,203,3,-669
394383466,2724,1104,15396,-48,116,-7
394385170,2204,352,15580,115,253,-308
394386894,2520,3500,16644,152,143,-549
394388671,2176,996,15176,40,204,-163
394390411,3980,4876,17492,477,459,-907
394392109,4004,5860,18140,124,183,33
394393794,1280,552,16056,37,36,438
394395474,1068,1536,17620,584,0,-479
394397167,2216,2972,17280,576,38,-211
394398973,2560,3176,16712,278,-145,443
394400895,2744,1380,16884,241,-339,157
394402631,4052,1688,17724,248,-65,-43
394405183,4316,1484,15084,186,-120,45
394406895,3016,1404,16272,40,-161,8
394408574,3060,412,14512,-29,-41,-198
394410249,3160,284,14696,62,33,-423
394411989,4232,2804,15872,254,75,-653
394413722,5308,3620,15636,-44,183,-77
394415428,3720,2204,15428,-91,302,59
394417124,2912,1020,15916,58,277,-125
394418818,1692,2584,17720,403,169,-471
394420513,2212,4488,17004,251,69,257
394422265,1720,3340,17268,211,-116,428
394423973,2748,2380,16744,364,31,182
394425716,4420,2408,15860,411,12,218
394427425,3544,3060,17348,149,-141,461
394429137,3124,1832,15684,-25,-206,716
394430844,2596,-396,15744,172,282,-147
394432577,3816,1628,16980,155,213,-195
394434287,3972,2172,16500,-34,17,-52
394436063,4352,1472,14956,-144,301,-93
394437803,4088,564,15744,-68,578,-193
394439537,2708,1588,16588,40,170,-425
394441259,2648,2180,16072,61,65,-311
394443055,2084,2856,16512,74,176,-190
394444743,1848,1968,15884,132,-80,-77
394446406,3548,3072,16492,349,-131,-501
394448097,5236,4568,16672,247,143,-263
394449831,4452,2892,15892,116,-40,481
394451535,2956,1468,16812,260,-29,293
394453270,3496,808,15824,248,10,178
394454963,3724,1784,16396,373,409,-124
394456660,3548,1980,15960,190,263,358
394458336,3152,996,15644,167,240,258
394459999,3840,1472,15964,237,311,-202
394461700,5124,3288,14144,-27,200,17
394463430,4296,1376,16052,-102,580,-73
394465124,3600,980,16056,-152,469,2
394466837,1824,-1032,15868,121,165,-263
394468547,2836,2488,16888,260,-128,-805
394470255,3696,3640,15812,60,84,-293
394471972,2684,1360,16848,7,469,-52
394473832,3796,976,17280,325,206,-531
394475565,3740,4272,17132,160,24,-331
394477275,3084,3816,16540,10,176,192
394478973,1704,684,14796,250,491,66
394480665,2612,1584,15624,346,253,-489
394482359,3484,1968,16544,352,373,-352
394484100,4196,2656,15752,426,435,-294
394485799,3464,2348,16608,63,443,88
394487495,1224,240,16600,155,350,-353
394489260,1524,1356,16708,394,405,-788
394491032,2908,4468,17348,183,-35,-335
394492763,2496,2944,16924,-132,14,105
394494550,2864,772,16932,20,227,-313
394496231,2496,1140,17372,175,-1,-526
394497899,2692,3240,16148,112,-281,-334
394499566,2340,3300,16484,-9,-58,-228
394501231,2672,3156,15904,-77,16,-23
394502917,2080,964,16692,83,-23,-74
394504646,4108,3144,16072,288,-156,-525
394506341,5368,4348,16420,16,414,299
394508080,3804,3280,16488,-143,290,547
394509792,1844,612,16108,60,187,96
394511499,3112,2632,16512,236,97,-250
394513206,3100,3148,16012,49,124,198
394514937,2368,816,16208,-52,69,236
394516649,3000,1132,16888,150,-85,-365
394518357,4076,2896,16820,84,171,-194
394520089,3116,3004,17060,-77,-74,74
394521800,1844,1232,16516,-178,94,32
394523508,1664,1616,17316,-79,-20,-484
394525239,1908,3044,16824,-62,-11,-413
394526948,3340,2764,14488,-244,-109,-114
394528654,5144,984,16468,-44,642,-232
394530361,1024,2420,17100,-489,-146,34
394532138,996,376,10284,-327,263,276
394533956,624,2392,20740,857,684,-1613
394535756,2084,6272,17316,-506,-364,894
394537574,640,1368,18500,335,266,-871
394539526,2804,6156,19860,-337,-371,339
394541365,1076,1448,17364,-169,-621,225
394543170,1500,3596,17404,12,-831,-275
394544911,1592,6340,17612,-623,-1204,605
394546643,4276,-1156,2464,-1098,-743,1623
394548337,8560,-2200,23120,788,372,-1582
394550034,7980,7536,23196,-547,-1447,-849
394551728,7292,-7808,1464,-1031,1408,1944
394553399,5684,4988,22516,1216,1694,-2812
394555060,6952,7536,22680,-339,505,625
394556735,-2164,-3864,14832,-203,87,-83
394558431,1224,3456,16608,667,1816,-419
394560128,-1740,3824,24348,360,857,22
394561829,7136,2960,12804,92,-340,451
394563527,-1452,4512,21648,-211,-394,247
394565225,3756,4340,10940,-94,-413,744
394566943,-1684,1504,21968,255,-291,567
394568671,6272,-2008,10560,-153,-602,456
394570408,2504,2600,17660,472,96,-750
394572216,5764,4672,17124,350,140,-203
394573976,5496,4556,10596,-663,-688,639
394575709,6372,1592,19024,64,1764,-126
394578279,3584,720,11972,-571,172,757
394579966,1432,380,14252,-247,987,39
394581636,2928,4752,18076,-196,581,371
394583305,-1892,540,24624,-331,-1642,855
394584981,556,960,10216,-995,-2663,1295
394586653,-1520,-9796,10732,835,1588,-247
394588320,3132,11312,32767,790,-3162,-1580
394590033,13308,9012,10716,-1194,-3166,2181
394591808,-596,-5444,8940,577,987,-1588
394593546,5140,16236,29624,453,1830,-436
394595243,-704,-4440,17864,-790,-1973,1568
394596936,8076,-5800,2040,668,-233,-629
394598725,-1048,5992,21028,927,3099,-1153
394600429,-2644,6236,23092,102,-590,837
394602120,-1536,5888,11972,-153,-1477,753
394603802,5100,3504,14080,295,1636,90
394605484,4204,4112,16044,-589,-693,915
394607167,3872,720,14016,-263,-490,1232
394608908,-2848,-736,21616,-56,-1529,274
394610613,6928,1700,18584,651,2153,-359
394612325,7636,3880,12892,-730,-742,1627
394614030,2988,-776,12104,-405,-265,1463
394615734,6324,4948,15220,216,898,-593
394617447,1008,368,17592,-434,214,1037
394619184,3716,-192,13888,94,208,83
394620897,652,2396,15656,-274,539,1054
394622607,272,-784,18352,-4,114,280
394624317,2244,2104,15928,23,-720,578
394626025,3212,2396,14692,101,-274,259
394627736,6940,4448,16444,-99,367,605
394629468,2196,1728,19408,-413,-475,1125
394631179,2624,180,15932,-356,-478,804
394632889,2624,1268,16860,49,-59,-200
394634597,2764,3148,16188,-227,158,616
394636312,2592,1092,16440,-163,-161,240
394638044,4312,1968,14308,-149,-156,250
394639907,3656,924,16348,-101,196,278
394641631,3748,1372,14276,-43,206,253
394643317,1984,1440,17136,16,118,107
394644990,2232,2788,16676,-38,-64,34
394646663,2196,2996,17208,-198,-188,297
394648336,2480,2624,17004,-98,-13,190
394650058,2572,2400,17340,-179,-171,222
394651755,5328,2028,17056,-126,-53,3
394653444,4928,2644,15520,-379,-318,334
394655099,3712,1544,15196,-310,0,475
394656748,2108,1536,16096,-64,-250,39
394658399,3084,1936,15644,-209,-97,29
394660100,2776,2196,16588,-164,-112,-14
394661790,3676,2384,15324,-141,-4,79
394663502,5548,1684,16680,-72,-154,-216
394665217,5728,1888,14368,-340,-239,211
394666928,5840,156,14248,-181,329,-11
394668644,5684,1604,15036,-50,466,-498
394670362,3692,2320,15956,-362,230,-159
394672072,3572,2432,15036,-287,261,-380
394673809,3528,2880,16436,-276,349,-254
394675560,2564,-128,16268,-350,444,-92
394677286,2808,1568,16944,-198,-30,-902
394678999,3740,2544,16392,-227,-36,-660
394680705,4092,2744,16604,-176,-29,-394
394682392,4560,1940,16140,-333,264,-278
394684078,3408,1016,17840,-375,214,-297
394685780,4112,1752,15076,-118,95,-607
394687477,3884,2172,16272,-109,133,-396
394689354,4564,1788,14868,-213,546,-142
394691094,3320,1188,16560,-258,518,-165
394692836,4120,1000,14188,-77,367,-474
394694538,3864,3348,16304,-163,221,-575
394696216,3196,2048,16492,-242,664,-28
394697884,2368,1848,17160,-238,319,-277
394699554,2256,1400,17016,-256,221,-80
394701289,1872,1456,16588,32,336,-569
394702974,2308,2780,16756,49,403,-437
394704669,2056,3264,17804,-204,15,-44
394706364,3168,2216,16600,-267,145,-123
394708074,2896,2060,16880,-179,239,-151
394709773,2160,2628,16172,-111,239,-157
394711529,756,2648,17204,-272,-28,97
394713235,2072,1880,16140,-167,8,-58
394714945,2392,2240,15624,-145,33,5
394716655,3836,1964,15844,-22,254,-35
394718360,3960,2720,16792,-281,164,146
394720125,3752,2092,15680,-339,186,307
394721874,2120,840,16132,-70,229,-38
394723600,1748,2324,16556,-58,314,-43
394725315,2084,2144,16248,-143,243,90
394727025,1876,2112,17008,-121,93,8
394728734,2592,2132,16312,-150,-9,97
394730441,2784,1680,16420,-133,274,-25
394732178,2180,2088,17804,-299,-85,18
394733889,2148,1608,16824,-321,-218,33
394735601,2312,2284,16352,-201,-35,-189
394737400,2668,2424,16528,-194,82,14
394739215,3028,1332,16956,-263,-103,-91
394740974,3152,1428,16316,-214,-99,-185
394742727,3820,2452,16000,-101,66,-162
394744429,3412,2712,16044,-198,85,68
394746093,4112,2124,15552,-275,50,123
394747755,3356,1596,15708,-240,165,-90
394750222,3352,2576,15744,-76,325,-67
394751924,3736,2416,15540,-121,296,-12
394753593,2732,1600,17112,-148,136,85
394755280,3840,1440,15608,-157,22,-131
394756973,3836,1440,15688,-130,206,-56
394758665,3580,1576,16908,-31,315,-139
394760358,3996,2428,16932,-203,27,38
394762050,3964,1980,16508,-255,-68,29
394763743,4264,1936,14956,-241,350,-86
394765446,3400,1372,17128,-106,402,-200
394767153,3168,1496,15680,-189,128,-120
394768872,3252,1208,16000,-142,165,-259
394770605,3668,2484,15608,-208,343,-106
394772333,3272,136,16100,-159,378,-4
394774045,3724,300,16256,17,238,-434
394775788,4836,2556,16732,-40,241,-280
394777526,3308,1084,15444,-53,334,38
394779230,1928,812,16852,143,294,-423
394780929,1932,1860,17104,157,172,-571
394782624,3220,3164,16472,59,184,-137
394784317,3676,2112,16988,50,344,-20
394786016,3260,1548,17292,-59,136,-1
394787712,2028,476,16100,49,157,-254
394789403,2060,3448,17016,318,193,-529
394791096,2776,4632,16552,117,78,-118
394792922,2488,2952,16232,-230,183,374
394794788,3088,844,16600,81,458,55
394796548,3116,2612,16940,197,115,-1
394798227,1920,700,16544,-23,151,596
394799876,1196,76,17092,144,221,270
394801549,1544,1364,16916,263,-127,142
394803222,2080,1784,16876,374,-186,63
394804928,3660,2792,15904,324,-23,97
394806621,3680,984,16904,81,87,523
394808323,2560,464,16276,195,-150,74
394810019,2340,624,15648,279,-36,-38
394811749,2680,1932,16684,323,63,-177
394813470,2292,1452,16188,1,-128,169
394815241,2904,880,16276,310,-11,-424
394816965,4016,2468,15896,418,-33,-598
394818689,4240,4348,17300,52,209,76
394820411,2252,1356,14672,-21,133,47
394822130,1468,2676,17016,256,-8,-516
394823842,2708,3852,15880,259,95,-303
394825583,2312,3060,17056,73,-135,171
394827292,3496,1944,15576,134,-120,20
394829003,4360,1840,16380,191,150,-221
394830709,3760,3332,15796,70,-21,106
394832418,2616,2296,16920,79,-94,194
394834125,2972,1952,15680,-57,37,230
394835868,2564,928,16224,31,71,251
394837583,3124,1744,16328,248,-49,-93
394839328,3972,1496,16312,-12,-156,144
394841112,4352,1132,15528,52,105,-19
394842852,3636,1248,16372,77,10,-86
394844563,3520,2060,15784,130,34,-95
394846359,3136,2712,16544,-39,105,43
394848078,2248,2192,16952,-128,-111,147
394849763,3048,848,15808,84,-19,-231
394851436,5432,2800,15860,185,135,-489
394853106,4848,3076,16792,-150,35,298
394854776,4108,1060,15264,-158,-2,318
394856498,2588,-408,16744,93,144,-338
394858196,3272,2160,16060,325,334,-736
394859909,3164,3240,16772,168,246,-294
394861622,2576,944,16528,82,95,-161
394863330,3836,2256,16004,105,23,-617
394865038,5032,2488,15412,215,237,-432
394866769,4868,2208,15800,140,197,-281
394868479,2744,476,17160,6,232,-119
394870188,2724,1208,15460,184,87,-615
394871897,3064,2520,15144,337,164,-621
394873605,3704,4392,16376,238,256,-176
394875352,3468,2060,16532,-76,353,229
394877190,3264,1520,15536,241,160,-376
394879027,3148,3080,16716,342,224,-123
394880815,2676,3760,16936,178,249,40
394882540,2712,1808,16420,-13,272,471
394884241,2884,848,16392,219,31,-45
394885997,3700,1124,16048,279,169,-66
394887793,3624,1716,16596,346,254,-6
394889528,2708,1972,16492,160,124,388
394891222,2280,736,16012,228,85,-98
394892967,2652,1632,16304,263,118,-198
394894760,3836,2464,15908,283,281,-63
394896491,4012,1352,16280,34,-6,242
394898259,3008,232,16580,270,180,-309
394899932,3348,1104,15780,338,153,-382
394901601,2668,2436,16044,444,330,-341
394903279,2456,2864,16992,115,192,132
394904949,1924,1576,16248,124,97,156
394906612,3472,2356,15400,407,47,-517
394908330,4316,4472,16904,263,329,62
394910032,3864,3132,16836,78,313,388
394911745,1924,612,16456,225,128,37
394913466,2208,2324,16456,387,125,-362
394915183,2568,3644,16204,171,237,171
394916895,2892,2556,16340,91,196,330
394918679,3124,1164,16724,205,123,-85
394920382,3568,2772,15924,115,60,-12
394922827,2252,1492,16652,239,269,105
394924574,2396,2060,16992,33,-26,-31
394926437,1880,1324,16020,105,122,-228
394928278,4504,3084,15648,363,300,-359
394930097,3188,3272,17024,-199,-109,213
394931910,3324,1936,14912,-275,127,195
394933690,1956,1508,16724,209,248,-446
394935436,2700,3928,17284,151,-6,-86
394937233,2388,1736,15820,-220,-40,271
394939142,2700,828,17052,242,289,-543
394940923,3284,2644,17272,274,-12,-597
394942640,3796,2568,16136,-80,157,111
394944328,3180,1604,16788,-64,292,-159
394946044,1952,616,16460,-59,-19,-79
394947747,2188,240,15752,111,7,-428
394949456,3356,2592,16240,116,170,-544
394951156,2920,2660,16212,-123,-70,-253
394952860,3976,2464,15200,-135,24,-422
394954547,4148,2520,15708,-60,60,-467
394956240,3656,2976,16776,-116,140,-180
394957927,3056,1676,16172,-196,64,-40
394959636,3016,812,15732,27,50,-601
394961343,3096,2876,16648,144,256,-404
394963039,3444,2788,16692,69,83,-174
394964729,3836,2908,16440,-66,25,-130
394966432,4104,2372,15952,-110,281,-147
394968125,4380,1768,15708,76,486,-155
394969854,3396,1912,16592,97,378,-110
394971587,2352,1640,15924,-83,114,41
394973306,1844,1256,16804,14,90,-279
394975000,2536,1916,16040,62,149,-247
394976730,3352,1632,16624,65,-55,-199
394978454,4316,2224,16908,-32,28,-210
394980137,4132,2004,16928,-38,116,-113
394981841,3188,2044,16484,-76,-31,-79
394983535,2676,1660,16008,98,135,-288
394985233,3408,3208,16196,-11,300,-155
394986924,3196,2156,16356,-66,206,172
394988634,3224,1772,16424,195,88,-382
394990341,4232,3852,15536,-18,208,9
394992051,3320,1976,15540,-35,303,278
394993752,2280,2140,16736,-2,231,-4
394995530,3296,2332,15400,-113,97,37
394997272,3884,3008,16904,90,309,-124
394998991,4492,3188,16376,-54,290,137
395000699,2556,132,16832,-145,57,267
395002397,1672,836,17372,58,41,-287
395004106,2156,2400,16296,157,8,-221
395005810,1964,3320,16628,2,-115,-11
395007490,2012,1756,16508,-186,-100,215
395009185,3976,2324,16048,61,-120,-427
395010889,5184,3472,15512,5,53,-237
395012579,3212,3196,16604,-224,105,193
395014309,1136,2196,17120,-273,107,62
395016038,2080,2056,16164,-196,3,-173
395017726,2044,3104,16584,-146,7,-147
395019418,2480,1908,16372,-327,47,427
395021150,3904,760,16360,-106,225,-346
395022853,2804,2524,17844,-185,-82,-341
395024559,1532,1836,16320,-160,-5,106
395026261,1732,2168,16268,-106,-79,-129
395027948,1964,1808,16372,-221,-50,-64
395029665,1800,1652,17112,-161,-273,-307
395031412,4132,3064,16560,-45,-151,-368
395033157,4632,2452,15752,-322,101,137
395034879,2768,1828,17016,-355,48,27
395036567,2416,2024,16408,-276,-121,-287
395038302,2500,2336,16256,-126,-38,-330
395040094,3044,2916,15672,-333,-56,77
395041927,2644,1640,15896,-306,23,59
395043686,3396,1968,16292,-199,-70,-324
395045419,4160,2116,15748,-217,21,-94
395047145,3728,2228,15232,-296,66,-6
395048870,2820,1684,16276,-316,244,80
395050593,1964,2224,16904,-230,-273,-311
395052340,3908,3412,16028,-218,94,-274
395054112,4408,2288,16172,-411,196,196
395055859,3024,916,16756,-342,144,191
395057596,3068,76,16484,-101,-308,-419
395059327,3608,2032,15952,-133,-73,-232
395061084,3244,1592,15988,-101,96,51
395062931,2868,972,16032,-88,-13,-1
395064686,3820,2444,16840,-176,-330,-379
395066428,5548,4424,14896,-149,199,-331
395068140,4780,3140,15160,-314,202,384
395069814,3600,1240,16060,-282,133,392
395071475,2744,-48,16568,-248,-151,-240
395073172,4744,2744,15012,38,198,-307
395074855,4364,3388,16224,-105,127,56
395076539,5516,168,14156,-245,385,347
395078227,5472,1992,17048,-46,333,-416
395079942,4020,2512,14956,-149,229,251
395081887,2504,1212,15980,-122,331,244
395083602,2124,352,16264,-129,384,-225
395085319,2248,1932,17292,-58,116,-364
395087035,4832,2956,15872,18,98,-197
395088750,5380,3024,16892,-171,241,-110
395090453,3680,640,16088,-340,386,327
395092149,1408,1968,17340,-69,183,-406
395093872,1228,2620,17040,-166,-82,-275
395096498,3356,3496,16228,-168,217,106
395098269,3436,476,16092,-163,260,154
395099942,3600,544,17032,-83,160,-306
395101602,4076,2392,15568,0,424,-97
395103254,2308,2308,15856,-23,162,121
395104975,1444,2384,16272,-138,450,90
395106661,1164,2044,17760,-119,316,26
395108356,2652,2116,15988,53,117,-33
395110060,4232,2060,15528,-23,195,-18
395111762,4160,2276,16100,-12,572,-29
395113457,1280,3636,17980,-206,-88,265
395115175,1140,1380,15876,-97,191,176
395116896,1492,2156,17476,-24,155,-266
395118612,2332,2544,16420,-327,230,541
395120327,2148,1120,17072,-123,-92,-172
395122039,3116,2504,17296,-175,169,85
395123748,1420,2328,17980,-276,-229,231
395125483,1420,1552,15456,-229,109,199
395127193,2592,1672,16612,-341,64,-119
395128901,2036,1684,16200,-362,-105,28
395130610,3356,1020,16308,-61,16,-210
395132318,4212,1640,15708,-205,314,-235
395134024,2520,1916,17232,-307,50,-316
395135805,1928,2032,16244,-278,51,-222
395137854,1912,1072,16512,-116,0,-517
395139791,2520,2048,16712,-239,-90,-313
395141590,2612,1652,17104,-171,-32,-501
395143322,4352,2792,15404,-153,-45,-427
395145036,3528,2984,16840,-163,-58,-479
395146747,3680,3960,15616,-291,46,-274
395148452,1972,2824,16796,-287,100,-102
395150138,3244,3708,16428,-221,-15,-99
395151802,3468,3152,16560,-283,-18,152
395153467,5036,2220,13964,-303,149,173
395155131,3360,2692,18288,-185,32,160
395156849,5104,2408,14964,-224,-130,325
395158544,3196,-380,16272,-189,183,483
395160256,4220,532,14872,97,223,-139
395161965,3484,1756,16540,17,191,174
395163683,3700,2144,16500,-19,164,185
395165400,4552,1708,16076,-139,50,182
395167137,4644,1536,15748,-111,137,52
395168894,4692,1284,15480,-53,317,25
395170640,4124,1632,16608,13,467,-58
395172359,3544,1300,15992,-297,8,104
395174078,2736,2100,15848,-77,197,-388
395175794,3664,3292,15464,-90,288,-252
395177583,4492,3124,16896,-234,385,108
395179303,4100,952,15836,-411,9,220
395181034,3300,-100,15300,79,471,-299
395182758,3100,1748,16324,232,383,-578
395184460,3560,3564,16720,-145,387,150
395186157,3600,1776,15756,-233,424,100
395187885,4020,1256,15916,-97,543,-48
395189571,3964,2072,16300,43,448,-147
395191239,2584,1852,16436,-115,531,299
395192916,1596,772,17364,-158,453,224
395194591,1960,1332,16292,44,249,-347
395196302,2616,2816,15656,41,181,-113
395198094,2612,2148,18028,-5,346,171
395199802,2756,1596,18036,-85,121,170
395201466,2020,736,16296,-20,40,-9
395203126,2464,4116,16560,235,58,-185
395204776,2844,4532,16888,31,228,391
395206430,2320,1180,16084,-183,43,589
395208132,3104,1316,16572,258,142,-139
395209822,3348,2312,16756,259,119,80
395211541,2712,1756,15480,168,364,530
395213252,1956,1224,16996,165,189,324
395214959,1992,1952,16900,148,69,298
395216676,2696,1992,15632,207,144,333
395218457,2776,1924,16872,151,248,381
395220159,2188,-76,16912,20,-1,380
395221862,1464,-304,17020,168,0,5
395223625,2388,2272,16288,370,111,-302
395225394,2208,2612,17920,-20,39,238
395227168,2552,1092,15632,-36,-12,-57
395228935,2496,2420,17396,173,-11,-291
395230638,3120,2776,16188,83,-15,-29
395232356,1608,1800,16272,-97,-143,30
395234151,1628,1816,15744,22,-50,-171
395235942,2316,2712,16720,103,-170,-324
395237794,2968,3208,15720,58,-218,-72
395239624,3304,2796,16380,-43,9,13
395241391,3248,1656,15972,-90,30,90
395243099,3000,808,15980,141,30,-327
395244775,3136,2064,16512,180,65,-373
395246441,2580,2624,17200,43,57,34
395248106,2440,1844,16224,-35,-3,63
395249835,1964,1388,17396,32,-64,-98
395251519,3088,2036,16536,91,-156,-216
395253221,4060,2892,15956,-3,-327,-145
395254935,4116,3048,16560,-188,-6,139
395256645,3508,1684,16028,-181,-99,261
395258342,2804,1184,16568,132,-177,-155
395260145,4172,1952,15172,16,-277,-77
395261894,4212,916,15708,129,238,122
395263618,3776,608,16424,260,119,-25
395265345,4936,1400,16036,210,-164,-101
395267072,5216,2384,15064,139,204,-53
395269643,5172,2552,15056,190,601,17
395271378,4152,1344,16280,62,324,144
395273073,3032,1808,17032,102,102,-174
395274757,3464,2240,15596,117,248,-85
395276445,2208,1756,16844,151,175,49
395278160,2964,1156,16880,136,-85,9
395279865,3524,700,17024,155,-73,-77
395281577,5544,2832,15348,203,-87,-217
395283296,4508,2396,16020,222,144,144
395285001,3568,1456,16308,154,213,125
395286701,3192,844,16508,139,196,55
395288395,3940,1656,14268,266,265,-313
395290086,4396,2852,15424,216,506,141
395291781,3992,1868,15768,203,549,251
395293455,4208,1508,16048,172,444,-2
395295118,3528,2264,14484,151,366,-48
395296782,2788,2436,15924,279,601,-155
395298446,2788,3360,16884,152,473,122
395300182,1952,532,16748,117,206,136
395301890,2336,1912,17636,312,188,-221
395303555,2528,1924,17228,277,203,64
395305211,936,1500,17760,322,52,0
395306869,1152,2224,17396,308,-114,-69
395308524,2088,2424,17032,192,-247,31
395310178,3652,2196,15096,269,108,171
395311882,3928,2088,16176,414,225,-86
395313580,3820,2556,16836,236,68,49
395315292,2724,456,14780,185,246,259
395317000,2936,3072,15704,482,470,-423
395318709,3036,4208,16556,282,397,9
395320415,2448,1556,16052,73,373,345
395322147,3352,1932,16160,332,372,-312
395323856,2100,2700,16736,113,132,175
395325564,1188,2352,16416,171,267,96
395327270,1464,2388,17276,104,14,116
395328978,1140,912,17640,94,-123,0
395330683,1692,1468,16840,136,-146,-219
395332413,2528,2256,16908,257,93,-141
395334122,3324,3040,17476,65,-71,4
395335834,2392,1960,15860,-108,-15,-54
395337545,2568,1912,15580,-50,54,-162
395339382,2468,3068,16984,122,117,-223
395341152,3056,1828,15560,-207,-7,305
395342890,3052,276,15212,-1,243,-247
395344598,3264,1148,16012,148,217,-474
395346270,3916,2520,15680,124,67,-166
395347926,3352,2252,16196,-81,170,80
395349584,2844,1676,16148,-38,233,-42
395351240,2556,1984,17060,67,38,-229
395352947,2848,2328,15972,84,-45,-270
395354652,4060,2892,16588,105,269,-342
395356370,3716,2780,16864,-201,-121,174
395358079,1816,-132,17224,114,-236,-191
395359788,3084,668,15864,301,-246,-592
395361497,3764,3172,16388,199,-101,-201
395363228,3996,2140,15988,-62,-67,163
395364938,4200,-600,15244,113,131,-188
395366682,4436,820,15408,341,74,-720
395368422,6376,5288,14932,119,100,-253
395370141,5192,2904,14388,-236,602,260
395371888,3612,268,15912,10,490,-195
395373698,3300,932,15904,182,323,-455
395375372,3868,2996,15468,50,334,-241
395377050,3604,1412,16148,-91,529,149
395378714,3368,108,16536,2,542,43
395380387,4332,688,16360,311,254,-605
395382073,3408,3300,17544,258,181,-141
395383788,2968,3092,16496,152,242,150
395385462,564,644,17432,117,90,59
395387210,2252,1892,17328,408,100,-566
395388982,4620,3644,15524,187,144,168
395390699,4496,2024,16412,83,190,282
395392394,4700,1608,15704,5,217,-67
395394114,2920,1492,15280,140,408,-304
395395799,3424,3440,15472,81,290,-234
395397484,3936,3372,15012,-55,469,-42
395399168,3028,1196,15484,-153,503,51
395400855,3460,1052,16196,248,607,-466
395402540,3396,2120,17224,185,485,-420
395404289,868,2012,17768,-40,221,-40
395405988,-260,1704,17376,198,215,-320
395407694,-80,2476,17892,307,63,-479
395409454,1824,4164,17936,100,-262,-162
395411169,1820,2712,17732,-27,-30,39
395412877,1928,2720,17600,37,-174,-147
395414615,1604,2776,17308,23,-332,-94
395416327,2396,3128,16012,-24,-166,-173
395418036,2644,2940,15844,-270,72,126
395419746,2476,1972,15152,-249,110,112
395421455,3828,2664,15196,-82,49,-439
395423163,3280,3336,16400,-353,147,150
395424897,1288,1044,15736,-214,202,52
395426609,988,1284,16788,-76,112,-256
395428318,1656,3148,17600,-208,-192,-122
395430027,1960,1828,16628,-126,-216,225
395431733,2892,1376,17208,34,-206,1
395433439,2600,2220,17896,-250,-342,161
395435176,1608,1132,17048,-81,-260,-19
395436904,2548,2856,16660,-67,-448,-12
395438615,2660,2544,16576,-219,-366,198
395441610,2644,2104,16304,-90,-170,-171
395443449,4632,2628,15588,-196,-431,-7
395445307,4724,1492,15496,-336,-174,48
395446997,4440,1572,14712,-203,76,-57
395448658,4180,1632,15056,-120,25,-137
395450316,4156,2928,15536,-276,-162,-106
395451973,3416,1700,15916,-257,228,-13
395453630,3264,1656,16208,-135,124,-160
395455325,3608,2324,17372,-101,8,-81
395457019,4548,2452,15660,-226,-259,-170
395458732,5828,2560,14852,-193,106,-115
395460441,4064,2404,16436,-222,231,71
395462148,2272,1792,17116,-223,-3,54
395463855,2836,1696,15996,-159,-227,-148
395465587,3596,2268,15568,-59,7,-160
395467296,3284,1520,15824,-208,-122,257
395469004,3148,1172,18128,-35,-130,-309
395470710,4876,2748,16904,-133,-340,-253
395472417,5992,1724,14560,-317,-120,297
395474123,6520,660,14220,-191,567,-74
395475852,4076,944,16732,-218,245,-275
395477682,3676,1436,15172,-230,82,-307
395479460,3780,1816,14152,-2,591,-544
395481214,2944,3340,16524,-344,442,28
395482947,1644,788,17036,-236,220,-186
395484660,3460,1456,16196,-87,80,-592
395486597,3332,2776,18068,-151,203,-152
395488612,1204,424,16968,-42,195,-110
395490845,1584,1936,17928,-29,-216,-467
395492566,3000,2580,15920,-26,-74,-315
395494268,2760,1892,16972,-10,76,-94
395495953,3264,1788,16352,-60,178,-201
395497704,2840,1932,17144,-127,19,-213
395499394,2464,2928,15512,-123,64,-145
395501083,3048,3160,15752,-167,235,-259
395502766,3408,2604,15536,-377,378,-11
395504455,2720,1988,16328,-303,403,-82
395506138,2684,1968,16308,-150,54,-283
395507875,1184,1704,16904,-134,142,-138
395509586,1144,1724,16456,-139,152,-143
395511301,232,3040,17944,-81,18,-158
395513011,1944,2780,16520,-103,-258,-3
395514727,3932,3632,17136,-185,57,68
395516440,3796,2692,17072,-309,186,439
395518210,1212,216,17208,-120,-43,184
395519933,1076,1868,17248,5,-329,-339
395521645,1996,3196,16324,-71,-164,-190
395523345,2684,3280,15820,-226,94,455
395525045,2788,740,16864,-254,-280,240
395526745,3944,1328,16424,-193,-115,-222
395528496,3708,2020,15892,-139,-143,-90
395530244,2800,1456,15664,-85,-13,97
395531957,2668,1480,16424,-282,-127,-148
395533694,3032,1660,15856,-139,-91,-278
395535430,3792,2760,15396,-10,-22,-377
395537175,4828,2676,16208,-286,-22,142
395538963,3244,1180,16512,-310,168,-171
395540654,2908,1748,16664,-176,87,-311
395542428,3256,2880,16080,-74,-85,-161
395544266,2824,2656,16408,-222,-25,13
395546008,2876,1724,16136,-198,95,6
395547699,3856,2876,16956,-70,-247,-206
395549456,4580,3296,15732,-151,-164,70
395551109,4496,1868,15232,-204,99,197
395552808,4560,2144,15884,-157,112,20
395554520,3968,2620,16092,-193,36,34
395556224,4948,3068,14940,-338,103,59
395557948,4484,2348,15644,-394,154,285
395559709,3988,1268,16648,-344,354,119
395561362,3180,976,16880,-471,42,178
395563004,3720,116,14900,-114,401,-262
395564643,3456,1740,16820,-47,234,-425
395566277,3648,1476,15580,-320,404,367
395567969,3160,976,16968,-247,215,-251
395569738,3992,2676,16436,-128,232,-221
395571505,4580,2988,16296,-177,268,-142
395573268,3328,1308,17036,-425,503,340
395574996,2224,-492,16308,-113,188,-190
395576746,2332,1112,17412,102,165,-570
395578818,3352,2892,14300,-112,358,-182
395580620,3376,2440,15548,-19,663,-121
395582352,4804,3280,16580,-190,10,-344
395584074,4020,2044,15904,-280,303,-133
395585755,3384,1840,14784,-127,497,-100
395587486,2676,1152,16376,-78,592,-189
395589211,2812,2144,16128,-355,12,-298
395590911,3200,1192,15464,-45,714,-282
395592596,3496,2060,16820,156,573,-579
395594275,3964,3612,16936,-304,544,126
395595949,1616,1396,16432,-281,467,-55
395597620,680,2392,17096,-131,418,-292
395599289,996,2636,17020,-207,173,20
395600971,2556,2296,16184,-152,486,-146
395602682,2576,2340,17816,-219,215,18
395604398,1856,1800,17148,-241,16,214
395606114,648,204,17188,-96,-7,-111
395607825,1480,2672,17716,34,66,-291
395609536,1408,3432,17932,-125,-134,122
395611287,2380,1628,16456,-158,-161,259
395613007,4076,1648,16128,-142,-105,8
395615569,4328,1164,15456,-64,317,82
395617290,3736,1176,15460,-98,174,64
395619001,1976,888,15792,-127,159,-71
395620732,1960,2104,14784,63,593,-98
395622486,2008,2132,16496,71,537,-13
395624217,2760,1900,16608,-3,0,143
395625914,3072,2952,16828,33,512,-99
395627608,2196,3400,17404,-19,269,150
395629301,948,2524,17536,86,204,342
395631001,944,2156,18316,-126,-239,177
395632705,1276,1584,17340,-99,-194,305
395634410,1852,1416,17516,42,-304,46
395636160,4700,2148,16752,36,-208,126
395637900,3332,2124,17172,-300,-427,446
395639619,3548,1112,15292,-262,-520,361
395641330,3236,964,16144,86,-373,-154
395643059,5092,2148,13616,-94,107,232
395644812,4984,1056,15640,-99,89,70
395646528,5128,1592,14264,-132,-28,-13
395648198,5220,1888,14520,6,474,-135
395649856,4696,2648,15552,8,619,-56
395651511,4028,2292,16160,-88,610,90
395653175,2836,2356,15932,-132,297,-127
395654855,1928,2648,17680,-26,267,-128
395656538,2508,2952,16364,32,175,-1
395658221,2556,2756,17836,-32,40,-22
395659900,3924,3156,16680,-260,55,49
395661579,3404,2516,17112,-196,111,162
395663319,3736,1436,16028,41,-106,45
395665021,3516,1256,17600,-122,-66,187
395666732,4176,580,14700,-106,146,44
395668439,3948,768,15384,58,288,-143
395670147,4676,2268,15036,103,266,-25
395671855,5196,768,15124,-253,278,377
395673588,4632,-488,14880,-114,374,125
395675296,4400,1080,14980,123,378,-308
395677004,3120,452,15696,38,599,0
395678731,2572,1408,17000,123,298,-389
395680493,2876,2024,16976,67,192,-335
395682225,2936,1820,16484,95,262,-273
395684069,2432,2260,18084,141,289,-144
395685776,1412,1276,17752,123,-79,-168
395687460,1116,1656,17832,182,-211,-385
395689182,2632,2816,16344,143,54,-184
395690914,2720,2360,16384,309,75,-195
395692601,3336,2732,16696,291,7,-140
395694350,3952,2472,15624,50,-36,148
395696056,3188,2236,14668,261,295,-19
395697740,2988,2184,14724,282,396,134
395699421,2736,2028,16044,264,449,34
395701109,3672,2900,15772,183,315,166
395702799,3836,2852,15852,109,375,351
395704538,3504,1988,16136,75,365,407
395706245,2068,604,16988,185,365,317
395707959,1372,1272,17620,192,-34,159
395709694,924,972,16960,145,-50,310
395711419,880,800,16792,214,71,166
395713136,1996,1808,17876,301,-183,-5
395714872,3320,1968,17500,59,-102,213
395716583,2600,1636,17568,-23,-203,119
395718297,2092,868,16296,183,-64,62
395720040,1812,1172,16664,322,-264,-328
395721765,3172,2144,15636,20,-158,-7
395723490,2936,1444,15764,31,-130,-44
395725234,5392,2320,13984,348,214,-421
395726947,4840,3360,15456,166,172,-104
395728655,2944,2040,15672,12,279,72
395730370,2024,1760,15940,145,328,-165
395732093,2644,2516,15848,280,335,-212
395733805,1672,2636,17928,283,-54,-33
395735519,2812,2436,17216,259,-108,1
395737233,3156,2392,17300,159,-158,-4
395738942,2676,2432,16768,218,-128,9
395740659,2620,2844,16824,242,-148,15
395742380,2896,2968,17132,147,-214,113
395744187,3600,2624,15200,-113,-278,236
395746001,3892,1388,15420,87,34,43
395747734,5504,2436,15696,66,-120,105
395749419,5568,2236,15504,-102,-77,240
395751080,5108,832,13704,-160,151,121
395752732,4568,1560,15116,171,451,-188
395754381,4320,2224,15784,120,359,-81
395756103,3436,1636,15868,-60,172,69
395757800,3168,1624,16188,-27,236,-156
395759508,3372,1092,15860,104,196,-146
395761213,4196,2320,16968,312,252,-497
395762908,4180,2584,17232,-117,156,110
395764621,2192,-76,16460,144,197,-241
395766397,2236,624,16824,348,86,-596
395768114,2764,2876,16808,255,173,-412
395769846,3056,2328,16648,1,203,-68
395771581,4036,1292,15408,160,109,-329
395773309,4124,1564,16136,224,92,-500
395775024,5660,2576,14704,137,396,-233
395776767,3832,1956,16116,17,358,-143
395778480,3596,1456,15024,-49,302,-48
395780210,2668,824,15452,172,442,-414
395781970,3684,3608,16024,276,432,-295
395783712,3036,2000,16576,2,373,331
395785436,2188,1072,16376,34,226,30
395788446,2008,2712,17852,421,263,-334
395790228,2644,3400,16620,82,240,377
395791897,2008,1288,17684,115,340,125
395793557,2464,1196,17088,227,357,137
395795228,1964,680,17492,335,150,41
395796900,2328,2168,16536,354,151,-74
395798627,1832,2848,16376,244,129,222
395800325,1880,2432,16124,219,147,269
395802039,2636,932,15892,260,90,16
395803739,4456,2988,16312,200,156,-108
395805434,4256,3172,15892,82,208,79
395807126,3040,1560,16064,76,314,187
395808886,2428,976,16308,224,290,-171
395810591,2000,1692,16580,229,95,-204
395812302,2576,1916,15984,280,214,-139
395814011,1636,2212,17292,194,61,-81
395815719,3424,2240,15880,298,63,-312
395817427,4352,3664,16392,301,180,-415
395819161,3060,3840,16876,-119,-36,359
395820871,792,1160,16468,168,215,79
395822579,1900,2228,16144,250,-174,-360
395824285,2664,2960,16744,122,-97,-170
395825990,2888,2752,16428,34,-145,179
395827734,5464,2284,15268,162,196,-72
395829580,4092,3520,16524,-190,-144,160
395831428,3952,2336,15276,-235,-81,405
395833194,2296,1192,15660,69,134,-105
395834916,2440,2984,16572,-36,107,-133
395836634,2812,1596,15660,-184,-24,211
395838331,2780,1192,15920,-26,-21,-118
395840184,5048,2612,15896,7,144,-189
395841906,2440,2396,17296,-225,-10,138
395843582,2336,1816,16420,-38,130,-164
395845289,1572,2308,17996,5,-13,-211
395846996,2256,2596,15792,-116,-108,-44
395848706,2912,2192,16852,2,36,-166
395850481,3152,2012,17488,-46,-72,-86
395852157,4272,1708,15976,-112,-98,-132
395853820,3520,2892,16228,-107,-155,-240
395855474,4052,2996,15016,-172,143,-61
395857136,2704,1900,15880,-230,-30,-32
395858799,2792,1396,16364,-292,-198,-358
395860500,3856,1696,14948,-269,-82,-467
395862193,4292,2760,15464,-21,196,-606
395863903,4456,3392,16736,-371,10,22
395865611,2756,28,15536,-351,-12,-196
395867319,2932,392,16192,-96,188,-585
395869024,2824,2752,16704,7,91,-352
395870755,2756,2456,16532,-88,-80,-160
395872464,2960,3044,16460,-103,-73,-261
395874172,4136,3116,16284,-206,128,-10
395875878,3016,2244,16512,-36,-91,-37
395877585,2524,2356,16456,-151,-21,225
395879292,2384,1412,16504,-189,1,171
395881022,3316,2280,16384,-144,-71,-1
395882782,3052,1564,15536,-167,85,256
395884535,5296,2308,16340,-79,366,-105
395886256,4904,2092,17580,-254,250,257
395887974,2508,-740,14624,-269,-33,132
395889778,1648,1444,16952,133,185,-607
395891638,2468,3636,16140,-215,18,118
395893544,2876,588,16076,-212,161,162
395895265,3008,8,16944,-71,51,-226
395896928,3720,1716,17152,17,68,-281
395898594,2312,2960,16420,23,35,-110
395900264,1600,3024,17024,-39,15,-54
395901979,1584,2540,16940,-154,-28,-114
395903664,2748,2136,16068,-19,49,-198
395905377,3064,2672,16292,71,-13,-231
395907082,3332,3136,17384,-56,-108,58
395908780,2268,1264,16416,-159,-16,174
395910473,2088,1104,15972,2,-25,-113
395912168,2704,3544,16300,39,-204,-201
395913871,3124,3100,16488,-254,-73,280
395915681,5060,1320,14660,-196,-57,22
395917563,4536,2348,16248,-217,-69,-164
395919366,4616,2648,14716,-233,202,42
395921117,2112,2192,16704,-241,90,70
395922941,2160,1100,16544,-317,-44,-29
395924641,1984,1436,16412,-173,19,-164
395926391,2968,1668,15848,-25,34,-215
395928138,3864,3576,17552,-148,41,-207
395929887,2844,1924,16596,-464,-108,342
395931598,1612,796,16856,21,-56,-236
395933352,1292,2076,17596,61,-235,-384
395935069,2632,3552,17048,-274,-174,62
395936777,3412,1448,15500,-215,-206,123
395938468,4144,1224,15920,-89,-283,-117
395940166,5036,2116,15672,-206,1,-73
395941862,4568,2416,14944,-285,132,-103
395943625,3428,600,14796,-239,193,-83
395945296,3176,856,15568,-131,253,-519
395946973,3616,3124,15344,-270,403,-254
395948680,2612,1796,16992,-274,241,-126
395950385,3732,1512,16096,-277,97,-291
395952059,3504,1180,17144,-249,199,-400
395953784,2960,2156,16580,-210,334,-235
395955453,1352,2472,18184,-177,143,-183
395957126,1308,2496,17016,-332,-390,-169
395958797,1800,1596,17008,-179,-222,-318
395961082,4016,3740,15508,-36,0,-426
395962763,4592,4708,17864,-363,-185,-54
395964442,5124,3780,15324,-519,-363,239
395966131,3456,336,15472,-386,119,143
395967821,4536,460,13660,-119,328,-238
395969530,3016,2228,16904,-198,216,-204
395971244,3512,2096,15080,-305,164,75
395972961,3516,1616,16048,-46,228,-293
395974742,4804,3904,14992,-298,380,-9
395976452,4156,2740,16256,-434,605,291
395978165,2792,472,16744,-170,356,80
395979908,2852,-508,17620,-160,288,-108
395981656,2732,1096,14896,-70,287,-305
395983376,788,2728,17284,4,401,-223
395985095,2080,2816,17608,-121,56,235
395986791,2992,584,16568,-172,-49,14
395988473,2224,1752,16968,7,42,-246
395990177,2608,2452,16688,84,60,-193
395991925,3200,3496,16340,-156,-65,77
395993635,3576,1016,15260,-313,93,173
395995384,3364,848,15884,-127,240,-223
395997053,4856,1964,14620,-80,289,-81
395998722,3616,1700,15536,-132,231,-162
396000453,3212,2488,16680,-127,300,-135
396002162,3272,1904,16108,-142,160,31
396003829,3072,2136,14992,-23,372,-181
396005566,2692,3044,17492,-133,212,-85
396007265,3120,2352,16916,-203,91,142
396008978,2812,880,16596,-37,32,-80
396010689,3048,2612,16044,-35,294,-217
396012397,2288,3368,17672,-123,324,-141
396014103,2660,3356,16916,-231,25,103
396015837,2680,1800,17360,-244,-40,108
396017548,2520,1272,16164,-172,161,67
396019256,2216,1296,16572,-82,184,-110
396020967,3588,2172,16024,-143,-52,-42
396022674,3928,1712,16300,-219,-22,44
396024380,4148,1888,14828,-234,54,7
396026111,2824,2132,16556,-215,197,4
396027820,2988,1464,15708,-186,87,-73
396029537,3344,1428,16168,-162,85,-144
396031335,3268,1452,15740,-133,136,-109
396033105,3256,2148,16368,-89,193,-256
396034845,4244,2508,16060,-189,215,-139
396036639,2856,1984,16888,-250,94,19
396038382,2636,1984,15544,-193,152,-47
396040072,1976,2608,16832,-192,107,-161
396041767,2012,1856,16320,-211,67,57
396043457,2400,1856,17048,-92,-85,-274
396045139,3056,2468,16188,-224,-191,-264
396046842,3924,2120,16076,-188,364,-120
396048565,4368,2400,16380,-228,58,-133
396050251,3828,1676,16580,-368,23,58
396051932,3564,1188,15032,-179,339,-368
396053608,3088,3112,17324,-268,340,-44
396055261,2756,1968,16356,-369,144,247
396056974,2760,1364,15992,-62,134,-346
396058641,3772,2712,15552,-242,112,72
396060316,3308,2148,14752,-293,177,190
396061985,3564,2992,16568,-127,357,-338
396063654,3376,2632,16508,-290,227,220
396065326,2000,2236,16720,-239,75,195
396067045,2124,1412,16372,-152,151,50
396068743,2960,1108,16856,-107,285,27
396070454,3172,552,17136,75,159,-48
396072165,3380,1512,17312,111,-61,-196
396073871,4628,3288,15612,-146,276,161
396075573,3856,2116,15948,-262,425,164
396077320,3932,2200,16200,-213,473,50
396079044,3492,612,15924,-206,75,173
396080805,1944,276,15256,-81,156,-48
396082548,2004,804,16608,47,368,-241
396084263,2624,1452,16708,26,117,-309
396085983,3908,2136,16236,-45,133,-72
396087695,5372,2288,15352,-27,499,-211
396089387,3724,2072,17236,-156,340,50
396091085,2972,956,16528,-108,321,159
396092822,1120,504,17168,137,229,-417
396094533,2472,2568,16228,162,74,-152
396096201,2784,2416,15896,108,267,53
396097934,2408,1296,17256,135,51,-74
396099610,3628,2284,16956,196,-2,-80
396101296,2748,2872,16776,145,-148,-24
396102993,2544,3332,16124,-65,16,220
396104737,2912,1416,16236,22,230,8
396106500,3716,2360,16648,132,-67,-46
396108213,4104,1792,15832,88,-119,184
396109886,3492,676,15176,86,249,24
396111560,2648,1408,16632,207,358,-21
396113231,1796,1836,16988,175,141,52
396114901,2844,2248,15036,179,-10,25
396116571,3484,3104,16216,95,5,91
396118293,4212,2772,15036,-9,250,255
396119994,3040,940,17180,133,264,9
396121753,2516,2032,17228,181,89,-25
396123464,1464,1300,16528,52,-101,154
396125172,1472,1288,16036,92,36,-37
396126880,1436,2252,18460,142,61,-67
396128612,3416,1712,16020,225,-142,59
396130323,3916,1948,17520,251,-43,-203
396133230,1592,128,16612,-1,-127,222
396135000,1768,1468,16732,439,-194,-581
396136728,3264,3532,15720,-34,-173,19
396138495,3552,1548,14440,1,31,39
396140241,3876,1416,15216,225,194,-204
396141931,5840,2292,15188,125,243,-166
396143614,3024,1664,16448,-16,104,50
396145291,2740,1576,15124,140,301,-117
396146963,2116,2500,16992,258,178,-322
396148644,1948,3408,16832,105,33,15
396150347,2128,2384,17440,86,145,178
396152063,2452,1876,17456,73,-84,73
396153729,2768,1364,17624,94,-17,-36
396155387,3008,2400,16124,142,-118,-36
396157038,2468,2636,16840,151,-62,23
396158693,2268,3024,16648,-74,-372,130
396160350,2888,1848,15512,-207,-296,248
396162042,3768,2028,15456,94,-58,-374
396163750,6436,3796,15480,-33,274,89
396165469,4344,664,14664,-263,-114,247
396167179,4356,-172,13504,-69,229,-45
396168889,2832,532,16456,220,180,-439
396170628,3424,2120,16096,165,433,-152
396172360,2892,1816,16292,8,222,36
396174073,2352,1584,16560,84,144,-40
396175795,4408,3320,16008,180,65,-274
396177735,4316,2136,16828,19,317,172
396179588,3404,-460,17468,226,337,50
396181568,1420,-472,17240,281,-267,-308
396183348,2684,3424,15920,480,84,-561
396185125,3212,4376,16896,343,108,-157
396186820,4100,2184,16300,40,60,371
396188495,4808,192,15052,129,-35,-193
396190182,4556,588,15340,317,101,-399
396191876,4108,3184,14252,313,186,-243
396193627,3428,2492,16404,87,370,-63
396195357,3464,1632,15056,15,432,9
396197040,3332,1016,15636,239,489,-284
396198718,5576,3100,15568,337,430,-329
396200465,2912,2408,17132,-82,412,326
396202148,1756,1056,15688,-1,324,213
396203834,472,1844,18172,535,382,-486
396205514,3036,4340,15816,202,65,41
396207193,2572,3164,16772,146,376,384
396208874,2972,1436,17336,253,216,183
396210606,2052,496,17932,228,-20,8
396212310,2116,2892,16992,388,43,-253
396214019,2700,3712,16512,276,120,161
396215726,2020,1316,15688,-7,-78,426
396217433,2620,444,16844,204,105,-177
396219145,3796,1392,15816,304,68,-329
396220879,4172,2640,16136,216,130,14
396222586,3376,988,14888,-78,227,170
396224296,2528,88,15532,27,430,-162
396226002,2672,2044,15936,243,264,-550
396227706,2896,2452,15988,143,252,-255
396229417,2620,2672,16420,-22,206,-268
396231147,2232,1800,16320,77,418,-170
396232853,1628,2172,17604,329,59,-598
396234610,1744,3392,17288,158,-151,-260
396236326,1632,3528,17256,73,-43,-153
396238039,2180,3132,16340,101,-29,-39
396239809,2480,2500,17208,224,-130,-235
396241652,3968,3580,15840,-6,-251,98
396243354,3168,1548,15352,73,-96,106
396245047,3472,1804,14920,101,34,-96
396246735,4048,2568,14816,15,62,-133
396248415,4228,3212,15024,-53,202,-23
396250095,4108,2556,15120,-118,249,196
396251885,3260,1520,15948,-82,242,-86
396253576,3596,1636,15776,-103,349,-34
396255234,3072,1300,16416,23,394,-88
396256891,2616,2208,17500,27,74,-44
396258541,1420,1456,17140,-134,-67,114
396260283,1824,1796,17404,147,-77,-271
396262038,2656,3016,17216,134,-248,-336
396263764,4296,3076,17184,-219,69,200
396265487,2708,472,16000,-198,-354,54
396267196,2788,68,15976,21,-155,-227
396268912,2736,1192,16216,83,-544,-583
396270705,4240,2976,15412,-121,151,-185
396272529,3888,-92,14716,-49,113,-146
396274256,4168,580,16256,98,-17,-705
396275941,5592,4064,14308,-23,23,-488
396277625,5212,3468,14460,-123,757,-55
396279297,3200,1176,17044,-143,419,-105
396280988,2256,728,16592,-96,157,-276
396282729,3056,2684,15432,216,240,-617
396284466,2704,4052,16856,10,179,92
396286258,2688,2208,16584,-163,158,400
396287974,1908,300,17536,32,-67,-326
396289742,3588,3304,16532,236,-70,-453
396291469,3676,4060,17388,-141,-38,284
396293302,1868,548,17288,-251,122,252
396295051,2164,56,17224,-98,34,-183
396296748,3788,2432,15976,86,-163,-456
396298453,4568,4140,14888,-203,66,0
396300102,4112,2892,15492,-396,226,376
396301750,2108,-64,15900,-256,9,-144
396303459,3548,2128,14860,4,-76,-671
396305900,4120,3456,15148,-176,285,-64
396307606,2932,2200,17320,-222,284,-54
396309297,3240,1536,16332,-194,67,-248
396310994,2772,1776,16892,-58,163,-383
396312698,2720,2848,16468,51,220,-43
396314471,336,640,17820,-175,-76,191
396316177,936,-344,17020,-31,-96,-139
396317878,1728,1524,17148,204,-113,-532
396319572,3260,3448,15936,58,-121,-101
396321272,3352,2936,17184,-283,18,107
396322972,2976,1772,16916,-392,-7,114
396324739,2224,616,15928,-112,-229,-278
396326448,2304,2996,15964,-38,-286,-482
396328154,3052,3576,15448,-178,-54,-188
396329864,2844,2136,16568,-338,-25,172
396331580,3484,952,15444,-111,-336,-299
396333295,4100,3912,16364,-93,-93,-507
396335108,4412,4728,15032,-233,178,10
396336828,1688,2220,16776,-261,84,258
396338586,1796,1392,16556,-143,-228,-134
396340403,2092,3128,16328,-75,-160,-199
396342172,2844,3304,15856,-12,-4,77
396343890,3432,2280,17064,-209,-135,194
396345612,3516,1276,17240,-355,-177,-3
396347295,3200,2740,15648,-135,-127,-108
396348953,2972,3004,16104,-116,-31,96
396350610,2648,1608,17008,-467,-158,211
396352268,2936,-100,15652,-372,-201,-89
396353924,3532,520,16088,-84,-150,-437
396355582,4840,2636,15032,-196,-291,-169
396357275,4400,2040,15384,-394,118,-4
396358985,4212,1852,15868,-359,156,-136
396360695,4012,1136,15480,-351,-85,-44
396362406,3892,2240,15312,-120,149,-484
396364117,3900,3660,16568,-199,310,-341
396365853,3500,1872,16712,-411,88,377
396367562,3008,-196,15680,-1,-42,-374
396369271,4184,2908,16280,-69,-71,-278
396370987,4292,2608,15432,-146,188,185
396372711,3272,1888,16980,-57,43,-24
396374425,3480,412,16572,-183,-114,177
396376214,4332,2628,14632,26,0,-494
396377916,5264,3808,15288,-16,375,-271
396379611,4048,2596,16648,-320,72,284
396381304,3096,144,15300,-276,37,-27
396382997,3076,104,16252,-41,71,-407
396384713,4448,3440,14916,-85,151,-248
396386499,3752,2536,16076,-284,245,182
396388192,4036,1904,15656,-270,242,57
396389875,4320,1224,16024,-129,286,-124
396391551,3624,2080,15240,-84,294,15
396393245,1424,1452,17416,-118,401,-27
396394934,1572,1804,17580,-82,193,-215
396396769,2972,2304,16420,-109,71,44
396398490,3584,2140,16012,-83,193,69
396400157,3552,1812,16608,-73,380,139
396401819,2340,1876,17508,-174,-165,33
396403472,2136,1424,16112,-58,98,-83
396405123,1632,2020,16716,-80,10,-241
396406817,3232,2536,15932,-181,310,0
396408505,3516,1540,16172,-282,-124,-161
396410263,3828,960,16696,-139,192,-235
396411980,3312,1352,15984,-146,114,-210
396413737,1720,2160,16512,-120,259,-257
396415455,2108,2560,16808,-205,29,-170
396417196,2664,2120,16380,-43,174,-173
396418905,3048,2372,16592,-85,-37,-144
396420614,3516,1848,17032,-134,438,-49
396422322,2572,2056,16180,-190,64,-93
396424056,1652,1872,16664,2,106,-141
396425769,1912,3320,16276,-67,-256,-216
396427509,1648,1980,16844,-295,183,162
396429221,2492,1728,17160,-119,-181,-130
396430933,4028,1612,15864,-101,-196,-275
396432643,3904,3504,16572,-199,-45,-262
396434347,2564,2112,15740,-366,200,455
396436098,1864,536,17024,-262,74,89
396437835,2652,2284,15772,-223,-179,-455
396439583,2904,2928,15816,-210,57,18
396441320,4340,2424,15660,-69,178,2
396443055,4800,2644,17328,-219,99,5
396444771,3800,1352,15232,-460,87,255
396446467,2748,2296,15892,79,98,-287
396448163,3252,3132,16196,-43,74,18
396449840,2572,1288,16240,-415,85,276
396451519,2768,1160,15844,-133,118,-157
396453193,4356,1964,15780,-93,-125,-195
396454861,5156,2228,14880,-187,152,-104
396456560,4048,1720,16904,-391,292,60
396458283,3524,1432,16348,-282,184,-139
396459980,2476,1692,17116,-277,12,-236
396461733,3004,1792,15228,-272,256,-183
396463454,3300,2408,17516,-251,117,-281
396465172,4820,1848,14980,-317,40,-197
396466888,4072,1888,16912,-253,119,-360
396468674,5324,2856,14068,-57,424,-128
396470380,3212,1904,16860,-297,41,252
396472105,3504,1044,15132,-277,61,135
396473802,2916,1376,16684,-5,330,-309
396475497,3820,2560,15056,24,362,123
396478276,4684,2860,16460,-369,351,141
396480069,4176,1608,15820,-352,470,268
396481771,4304,200,15248,-7,366,-257
396483475,2844,1904,17592,-208,401,-78
396485205,1868,1136,16588,-318,282,-15
396486925,1740,928,16728,-200,127,-257
396488631,3728,2308,15912,-116,196,-485
396490361,3520,2672,17480,-359,324,-79
396492056,3080,1396,17136,-452,158,37
396493726,2788,512,16316,-135,76,-499
396495460,2892,3188,15904,-217,24,-396
396497203,3040,2396,16196,45,695,-199
396498902,3252,3568,17548,-2,377,-277
396500577,3700,1464,15908,-341,179,425
396502246,2812,888,14508,64,473,-298
396503908,3228,1896,14764,222,748,-319
396505570,1680,2652,17424,-74,355,27
396507235,2328,1788,16044,-280,313,39
396508897,2088,1100,16920,-158,335,-124
396510559,3004,1292,16976,-1,540,-108
396512287,1708,792,17620,-190,75,-162
396513982,1780,688,17348,-195,27,-263
396515690,1168,1576,18396,-89,-135,-455
396517399,2328,2228,16232,-115,-22,-221
396519108,1912,2328,17384,-151,-41,-305
396520868,3228,2708,17244,-223,-31,-232
396522828,2992,1736,16268,-41,-216,-114
396524661,2716,1480,14728,5,41,-31
396526464,2696,2052,16668,183,231,-288
396528198,3424,3768,15880,37,-168,134
396529907,4572,2576,14892,41,48,368
396531616,4204,2636,15264,44,313,86
396533386,2224,1384,16588,-16,297,355
396535070,2208,752,16160,82,190,82
396536747,2584,1920,16512,53,28,-86
396538477,2280,1756,16720,-79,19,236
396540192,3288,596,16764,0,120,-72
396541900,2960,1224,18012,-27,-55,-232
396543616,3440,1756,16752,-249,-203,6
396545289,2188,888,16252,-34,-174,-220
396546956,2856,1152,16016,9,-97,-344
396548623,2584,2008,16916,-84,-173,-387
396550289,4012,2568,15544,-24,-105,-207
396551953,3704,2460,15916,22,-106,-141
396553685,4444,2548,15140,14,171,-151
396555387,4316,1848,15460,68,243,-103
396557107,3792,2628,15976,161,223,-144
396558820,3884,2248,15208,57,184,255
396560529,2824,2340,15988,134,263,-38
396562235,2732,1392,15904,146,226,167
396563972,2884,988,16604,214,102,-110
396565721,4568,3632,16368,-5,8,-181
396567431,3640,2024,15040,-162,370,256
396569142,2388,1436,17700,32,128,-23
396570858,2056,1128,17664,-107,-138,-30
396572577,2820,644,15512,-133,-69,-214
396574324,2692,2224,16696,18,38,-202
396576061,3512,1536,16356,-57,85,-15
396577772,3972,1288,16228,14,-76,-386
396579482,4632,3184,16164,-97,55,-82
396581189,3284,1124,15288,-57,222,123
396582894,2488,872,15892,116,163,-92
396584605,2644,1252,16468,272,210,-132
396586318,3524,2040,15308,211,-23,108
396588066,3568,1736,15564,272,169,67
396589814,3740,2228,15756,273,422,45
396591561,3772,1732,16532,330,211,71
396593280,2628,1996,17712,171,13,79
396595085,2840,1444,16024,44,-9,149
396596815,1800,1112,16492,265,317,-238
396598498,2756,1156,17216,220,183,-137
396600181,3216,976,16680,97,-105,-261
396601860,2664,1368,16836,60,-52,-310
396603512,2648,2048,15600,129,-37,-266
396605324,2128,2076,16668,229,-49,-434
396607101,3440,3188,16368,32,-108,-225
396608832,3812,3060,15448,-2,-112,-104
396610529,4808,3128,15240,106,273,-216
396612228,3488,2164,16032,178,248,115
396613920,2960,1744,15868,312,228,-29
396615613,2364,2064,16552,315,89,49
396617395,2720,2356,15392,354,272,7
396619203,1580,1868,17272,366,252,243
396620943,2116,1784,17000,526,124,43
396622650,5268,3708,16200,278,-186,87
396624351,3292,2400,16752,-68,168,520
396626123,1476,1636,16584,223,127,175
396627815,928,1428,18356,179,-161,140
396629503,2880,1244,16036,27,-311,-7
396631185,3132,1384,16984,-52,-91,263
396632866,3280,572,15996,33,-149,322
396634545,5912,824,15116,289,94,-455
396636295,4464,2912,16064,-96,-91,215
396638052,3916,1252,14228,-27,194,433
396639800,2244,1416,15796,252,0,-282
396641540,2484,2172,15396,143,199,-39
396643274,2620,2540,16536,276,21,54
396644986,3988,1936,15680,266,13,174
396646784,5036,1644,15276,190,85,-104
396648474,2356,2216,17412,356,435,-114
396650761,2416,2940,17256,340,155,-44
396652442,1720,2944,17652,76,-147,-92
396654114,2556,3248,15896,173,257,21
396655785,2492,2636,17084,238,139,78
396657508,3948,1996,16672,23,-161,12
396659198,3696,1308,16300,-48,-47,-11
396660893,3456,1888,15616,11,-105,-187
396662587,3000,2512,15588,85,51,-118
396664282,2960,3796,16132,-136,-3,-89
396665975,3548,3280,16144,-271,30,87
396667727,4308,1856,14796,-106,38,58
396669432,4920,1920,16324,-40,151,98
396671144,4192,572,15760,4,322,59
396672852,3328,552,16040,45,292,88
396674557,2408,1164,16412,201,314,-201
396676266,1952,1976,16980,127,223,46
396677999,2176,2168,16040,198,161,14
396679708,4060,3192,17020,114,203,95
396681416,3520,44,17220,-30,195,438
396683124,3160,-968,14752,442,261,-232
396684858,2348,-172,17520,579,361,-406
396686599,3376,2364,16112,191,-46,-193
396688320,2908,1504,15448,138,213,-90
396690010,3664,1448,15960,298,288,-311
396691697,5396,3116,16380,209,150,-412
396693381,3944,1952,15200,14,108,129
396695060,2268,1256,15344,128,200,-137
396696741,2592,2076,16496,167,185,-418
396698461,3756,2236,14556,91,198,-219
396700189,4460,3216,16556,300,507,-337
396701878,4816,3032,17104,130,379,-67
396703536,3424,1248,15564,-3,473,-70
396705185,1492,2424,16244,312,363,-393
396706839,1328,3144,16848,356,416,-300
396708545,1968,3792,16432,53,24,6
396710227,3080,2004,16200,3,286,56
396711921,2512,1952,17580,131,341,-207
396713614,3496,2940,16932,179,73,-85
396715305,2104,1636,16396,-15,-57,233
396716997,1352,1456,16724,27,-42,31
396718748,1992,1872,17472,97,85,-35
396720453,2316,2228,16052,151,-93,11
396722191,4484,3216,15168,171,-27,2
396723924,4928,3632,16660,51,152,190
396725639,3728,1480,14936,-193,192,469
396727366,2400,1224,16148,229,72,-183
396729166,2728,2420,16068,-37,43,241
396730883,2224,1324,15636,-99,166,345
396732588,2136,1484,16664,133,97,-258
396734284,3788,2448,16652,66,-42,-143
396735983,4668,1960,16380,11,220,-72
396737730,2260,2452,16724,-133,-48,4
396739534,352,2008,18164,-29,-82,-272
396741274,2108,2864,16272,-160,-64,-182
396742982,1296,2284,16920,-161,-121,-69
396744660,3668,1856,15512,0,-164,-436
396746333,3868,3424,17464,-263,-211,-253
396748023,3992,2948,15720,-320,-123,-36
396749764,2424,2652,16088,-137,-173,-305
396751456,2932,3856,15744,-241,8,-122
396753152,2356,2596,16348,-320,8,186
396754849,2540,1728,15872,-206,-115,152
396756539,3604,2176,16516,-55,-294,-259
396758229,4320,2320,15088,-221,161,200
396759979,3180,2036,16060,-180,160,132
396761715,3288,2272,16200,-188,35,-34
396763434,3216,2328,16788,-316,-145,89
396765142,2984,1992,15336,-377,66,204
396766850,2956,1208,16184,-310,266,53
396768558,3236,2072,18052,-309,-202,-127
396770285,4188,600,15712,-369,-170,107
396772041,3504,608,16044,-181,-135,-261
396773763,3228,1368,16160,-208,-112,-203
396775470,1940,1612,16440,-162,-125,-183
396777179,4256,3372,15796,-127,-268,-273
396778886,4752,3556,15916,-220,-288,-33
396780623,5168,1488,14340,-214,205,247
396782339,4540,560,16536,-12,63,-129
396784074,3992,548,15684,-75,-56,-278
396785787,4840,1084,14856,-1,175,-425
396787672,4092,3108,15612,-75,420,-75
396789480,3264,1520,16408,-103,326,-151
396791214,4512,2304,16000,-220,100,-207
396792902,3804,1240,15692,-201,248,-13
396794570,2560,1012,16024,-4,129,-446
396796234,2292,1936,17392,-127,57,-385
396797897,2344,2064,17136,-213,-33,-361
396799589,3444,2520,15988,-71,65,-460
396801298,3704,2140,17608,-222,9,-302
396802967,3604,2028,16912,-238,-82,-246
396804633,1844,1412,16720,-157,62,-285
396806296,2588,3380,16104,65,-110,-564
396807959,3748,4072,16068,-26,13,-345
396809628,3428,2016,13776,-250,236,211
396811348,3020,2292,17412,84,271,-586
396813045,3900,4496,15496,-220,112,-102
396814756,2840,3700,15460,-308,268,107
396816467,1764,2568,16280,-96,521,1
396818176,552,2000,17848,-256,14,94
396819883,812,1428,17180,-267,-95,77
396822774,2524,1820,17376,-97,-4,-29
396824531,2972,2156,17356,-332,-119,201
396826260,2088,1056,16372,-294,-158,140
396827973,1484,1348,17000,-175,-171,-20
396829712,1620,164,16740,-206,-292,139
396831428,2220,152,15644,-137,-267,-307
396833140,3012,1760,16952,74,-20,-330
396834839,4188,2376,17152,44,-216,-283
396836528,4464,3312,14984,-264,-178,89
396838211,2836,2148,15844,-194,244,-45
396839897,2744,2456,16180,-114,200,-48
396841637,2232,2052,17124,-109,-61,-38
396843466,3352,2512,15260,-111,-84,-57
396845163,3300,2440,16348,51,73,-93
396846827,3756,2984,15924,23,62,-35
396848485,3352,2752,17052,-228,-23,124
396850139,3600,2504,16012,-286,-54,41
396851797,3160,2132,16376,-243,0,174
396853496,3428,1688,15088,-211,-81,60
396855189,3368,2644,17252,-275,32,-167
396856900,3928,2608,16280,-392,-46,73
396858610,3940,392,16068,-282,87,-71
396860317,4272,2176,15788,-232,74,-321
396862024,3228,2888,16804,-355,207,-67
396863755,3360,2992,16712,-360,-8,-40
396865463,3576,2048,15880,-421,16,145
396867198,4452,1840,15140,-337,128,-79
396869041,3312,1676,16968,-220,-55,18
396870904,3612,1720,15772,-220,-225,68
396872681,4284,748,15220,-196,-30,-132
396874541,4740,2124,15832,-37,298,-141
396876255,4076,1468,15788,-226,364,231
396877930,4012,888,16148,-197,300,48
396879598,3816,1360,16436,-199,333,-85
396881262,3464,1152,15692,-115,345,-204
396882925,4004,1472,15416,-53,510,-274
396884637,3112,2228,17200,-274,401,-179
396886369,2788,816,16100,-253,101,-226
396888149,2268,1568,16944,-59,14,-643
396889950,2744,3000,16480,-174,323,-259
396891722,2440,3068,17376,-131,172,-287
396893516,4160,2832,16036,-260,15,-62
396895301,3808,1900,16352,-172,183,-197
396896991,3080,2100,15696,-77,476,-38
396898649,2012,2016,16392,-57,354,-54
396900301,2848,3104,15892,-29,211,-180
396901972,3196,2380,15544,-164,368,333
396903634,3368,1740,15156,-31,533,207
396905348,2908,2188,16956,-58,443,71
396907029,1892,1624,16848,-143,219,173
396908715,2116,1872,16332,-77,264,9
396910404,1776,2588,16664,-142,148,155
396912092,2008,2428,17664,-253,214,167
396913776,1896,1964,17944,-306,67,184
396915519,2764,160,16976,-108,-91,23
396917226,2676,1136,16488,-160,-297,-27
396918939,2812,860,15540,-140,45,42
396920659,2396,2652,16784,-78,-48,-157
396922374,2936,1948,16088,-208,-66,136
396924088,4412,1720,15112,-185,113,-80
396925874,4784,1724,15100,-150,435,13
396927580,2736,988,16508,-77,245,-28
396929276,2056,1760,16284,-3,76,-220
396930976,2476,2484,15840,-36,234,-81
396932672,2556,2368,16148,-23,357,58
396934366,2504,2388,17136,-50,6,-49
396936083,3756,2556,16756,-117,33,-188
396937791,3432,2956,16996,-149,14,-37
396939486,2628,1388,15164,-186,41,229
396941208,2408,2312,17716,-110,-24,-439
396942973,3260,2516,15896,-357,58,183
396944749,2920,1364,16468,-206,72,52
396946473,4416,2860,15424,-119,35,-200
396948143,4196,2412,16384,-366,381,130
396949871,3368,2252,16176,-337,205,95
396951625,2796,1256,16028,-168,192,26
396953320,2940,2348,15136,-225,105,-81
396954984,2708,2240,16276,-179,267,56
396956703,3092,2076,16372,-121,127,99
396958473,3596,1388,16680,-187,-124,39
396960282,4180,1592,15996,-156,181,-100
396962024,3504,2044,16924,-200,215,63
396963725,3100,1800,16572,-186,62,86
396965421,2384,2036,17448,-255,-3,-157
396967193,3808,2416,14800,-312,180,-42
396968882,3648,2156,15992,-278,329,-112
396970576,3996,1452,16440,-315,155,-101
396972270,3480,560,16100,-206,-78,-194
396973954,3684,2168,15612,-77,108,-318
396975637,3776,2232,15612,-162,227,-32
396977381,2876,600,16260,-99,288,-74
396979095,3848,2036,16652,18,-78,-448
396980852,4668,3092,15776,-59,-147,-275
396982591,4984,2532,15424,-161,458,-15
396984346,3684,752,15632,-67,411,122
396986097,3376,1624,16732,118,310,-370
396987911,3404,1852,15052,-143,463,119
396989699,2832,1296,15996,-52,669,59
396991460,3264,1568,16544,55,529,-112
396993157,3124,2320,17600,30,347,-268
396995450,2176,2024,17012,-3,220,195
396997130,556,1268,17728,32,-29,30
396998804,820,1140,17708,32,-89,-111
397000501,2500,2296,16304,140,-102,-164
397002191,3888,2928,16692,226,-21,69
397003873,4136,2464,17236,65,-206,372
397005561,3420,484,15380,55,68,363
397007249,2676,1652,15780,404,105,-195
397008991,3704,3260,15296,144,-39,307
397010696,4168,2620,15096,43,236,432
397012418,3872,1024,15512,142,314,445
397014137,3868,548,16140,408,199,91
397015857,3632,856,16332,301,137,169
397017569,2832,492,15332,290,531,177
397019343,2020,2940,17800,377,410,-44
397021029,1312,2808,17536,52,-26,413
397022700,1936,1824,16284,61,98,380
397024380,2912,1528,18180,184,410,93
397026057,1700,548,18400,22,-76,218
397027728,980,528,17736,159,-254,-25
397029456,1428,2336,16088,337,-312,-120
397031155,2016,2804,17196,126,-359,183
397032865,2396,2508,15956,-61,-389,344
397034575,3840,392,15196,324,164,-199
397036291,6644,3884,14976,277,-136,-50
397038006,3612,1300,15052,75,4,414
397039790,2920,1300,14720,216,233,-39
397041482,2936,2380,16384,303,457,-146
397043209,2676,3304,15540,129,8,103
397044930,3616,2160,15464,271,140,1
397046632,4052,2908,16944,255,365,-142
397048314,4028,2176,15932,-78,131,395
397050062,1628,1336,17208,161,-116,-81
397051738,1836,2424,17372,222,-221,-237
397053409,2008,3156,16972,-82,-213,224
397055077,2120,1196,16616,64,-151,58
397056742,2776,1448,17324,146,-275,-211
397058407,4976,2116,15452,-78,-216,177
397060119,4768,2220,14972,44,38,-108
397061818,4724,2408,15248,-49,148,110
397063535,3108,308,16004,-16,183,-54
397065253,4068,2520,14968,2,264,-195
397066962,3012,2064,15700,-98,136,38
397068668,3608,1300,15384,-32,177,-91
397070390,3420,900,17164,75,248,-298
397072119,3852,1680,16300,24,165,-180
397073841,2888,1020,16856,70,118,-81
397075555,1888,1524,16740,149,12,-313
397077263,1540,652,17272,242,47,-335
397078969,2804,2388,17312,317,-237,-584
397080689,3508,3252,17060,200,-228,-405
397082410,4300,2360,15748,45,-66,-150
397084128,4404,1016,15448,159,92,-301
397085874,3772,2572,16152,172,-2,-578
397087612,4016,3252,14912,27,48,-259
397089385,3312,2728,14980,65,357,-232
397091228,3980,1692,15048,90,394,-170
397092978,3900,2432,16524,60,210,-434
397094647,4784,2948,15104,41,318,-262
397096313,3512,2816,16576,87,333,-64
397097978,2396,1668,16560,-69,137,248
397099640,2164,-92,16204,88,301,70
397101309,2800,2700,17152,325,57,-455
397103006,4080,1360,16488,223,247,285
397104716,2560,728,17728,221,203,129
397106428,3116,704,16180,294,262,25
397108139,1616,1748,17564,413,-167,-299
397109845,2876,2936,16280,356,-191,-118
397111553,2964,2184,15636,142,35,192
397113264,3876,1668,16164,285,195,-73
397114971,5072,3056,15936,202,28,-93
397116697,4832,2428,15500,98,132,224
397118405,3356,1080,15272,226,437,-28
397120113,2680,1292,15844,221,235,-100
397121845,2868,1568,15836,241,257,-101
397123553,3320,1768,15812,341,388,-64
397125260,3588,2908,15908,259,60,-96
397126974,3944,1576,16388,221,739,58
397128681,2884,1620,18048,298,674,-214
397130388,1360,2324,17344,195,25,169
397132120,632,2024,16256,356,-97,-326
397133825,1668,3516,16752,363,181,-352
397135541,1720,2284,18092,41,-99,485
397137256,3512,720,15956,300,-221,-382
397138967,4480,4896,16560,133,-153,-210
397140744,4004,4204,15812,-60,-20,395
397142530,2484,1400,15228,88,133,124
397144277,3156,3012,16112,-124,-49,-128
397146015,3224,1800,14744,9,273,47
397147716,3636,1892,15448,178,314,-138
397149383,4776,1984,15768,-88,262,113
397151044,2516,956,16672,-82,190,-197
397152761,2632,1440,15476,117,345,-283
397154471,1500,2376,17492,218,252,-289
397156158,1344,2100,17636,-76,-76,-91
397157835,1312,1720,17256,-26,-59,-134
397159507,2324,2588,17332,175,-74,-350
397161177,2840,2104,17080,-65,-134,-134
397162906,3004,2268,16948,-87,-74,-274
397164611,2748,2600,17108,-89,-86,-191
397167480,2700,2828,15684,-136,-210,-387
397169234,4380,3196,14680,-276,109,-202
397170976,4476,1516,16620,-164,118,-150
397172711,3932,1496,15892,-214,-167,-242
397174512,4008,376,14460,-86,225,-446
397176218,3376,1856,16424,28,465,-430
397177912,1880,740,16764,-10,156,-380
397179601,2064,1300,17148,51,-78,-600
397181303,2992,3276,15976,-77,-176,-540
397183002,4048,3588,17036,-95,480,-346
397184774,2928,3176,18232,-208,138,-214
397186504,1804,1276,16556,-240,-283,-193
397188277,1684,1312,17544,-25,-153,-585
397190050,3220,2808,16596,-136,45,-247
397191787,2832,1964,17224,-225,-1,-62
397193504,4304,1672,16392,-81,-120,-624
397195306,4856,4560,17184,-119,58,-348
397196995,2964,2560,14520,-323,17,457
397198668,1448,1124,15760,-182,169,126
397200345,2896,1676,15488,-121,-122,-312
397202020,3984,1488,14568,-62,-137,51
397203691,4580,1436,14644,151,161,-113
397205412,5532,2932,16504,-21,125,52
397207110,3236,820,16336,-130,25,330
397208820,1856,2260,16620,193,19,-324
397210591,2876,3048,16440,71,81,-187
397212562,3020,3132,16884,-92,109,308
397214405,3716,972,16552,-21,10,186
397216188,4320,1036,16184,71,151,-177
397217891,2620,2348,16408,-6,114,27
397219587,1928,2656,15960,-46,211,59
397221281,2020,2492,16784,-190,-84,24
397222957,2308,2004,16024,-62,-67,10
397224638,2588,2516,15716,24,-114,-131
397226379,4884,3176,16308,-110,191,33
397228081,3440,1584,16152,-357,53,186
397229793,1416,1256,16408,69,-19,-179
397231513,1584,2320,16632,94,-93,-342
397233231,2148,3740,16504,-255,110,202
397234957,1696,1004,16556,-125,94,167
397236680,2540,1008,16408,64,-157,-187
397238384,4592,3448,17136,6,200,-242
397240084,1908,3100,16372,-352,-79,548
397241789,140,712,17508,-108,-85,50
397243487,1360,1348,16832,-42,-249,-317
397245216,1668,2888,16884,-350,-229,292
397246972,2828,924,16456,-39,-123,-90
397248689,4432,1708,17488,-128,-244,-320
397250367,4352,1140,15908,-463,-95,131
397252046,2284,1772,15536,-109,-153,-443
397253694,2692,2912,16032,-108,-56,-437
397255344,2736,2860,16696,-530,-216,-7
397257045,2796,36,14960,-348,23,-15
397258727,2736,-344,16360,-4,31,-475
397260468,4756,2692,15340,-151,-120,-601
397262166,3668,2692,16412,-351,102,-264
397263859,3028,1872,16492,-243,84,-221
397265550,2040,1468,16936,-250,-85,-304
397267304,1892,2348,16492,-212,-70,-573
397269008,3228,4508,17280,-310,-53,-401
397270724,4624,3592,16436,-434,-39,-62
397272444,3264,596,16504,-281,-309,-263
397274155,3928,2692,16340,-264,-25,-357
397275861,3596,1880,15916,-328,-160,-106
397277595,3740,1960,15416,-246,-66,-159
397279307,3496,1964,16160,-204,-171,-111
397281024,3896,3420,15564,-197,-9,-92
397282744,5260,4048,15812,-232,6,-43
397284458,5100,2476,15260,-413,17,533
397286168,4072,-820,15572,-172,259,344
397287910,3728,108,15260,-19,256,-126
397289703,3228,1544,16372,18,171,-248
397291486,4432,3628,15668,-261,183,399
397293221,4004,-60,16308,-201,349,297
397295036,4084,1228,15880,-8,261,-104
397296833,2308,1744,17576,-123,91,124
397298659,2076,1416,16692,-197,-67,147
397300379,2456,276,17156,17,131,-162
397302054,3868,2584,15140,-36,156,-278
397303728,3564,2952,17512,-63,260,-226
397305401,4596,2996,16008,-249,57,86
397307074,3324,1432,15444,-199,248,59
397308745,1904,1064,16192,-132,195,-57
397310486,2964,3436,15740,195,556,-410
397312270,3508,3700,15736,-266,111,426
397314035,2944,308,15432,-84,335,66
397315770,3284,2896,16776,172,404,-224
397317478,2964,3964,16728,19,281,146
397319281,1492,2356,16640,-225,40,572
397321090,1412,1172,16288,44,188,80
397322792,2488,3396,17740,121,22,161
397324501,3012,3596,17208,-54,-56,535
397326192,2688,1388,16800,-243,24,531
397327878,2632,1212,16824,-38,46,219
397329666,2028,1884,17032,-69,-102,169
397331353,2520,2720,15588,-239,71,275
397333052,2880,1388,15764,-379,44,460
397334778,3480,448,15800,-188,-10,1
397336512,3716,1288,15712,-202,9,-77
397338238,2988,1312,15588,-212,392,45
397340973,2072,1032,16004,-315,-21,-91
397342678,2064,1216,16040,-185,84,-375
397344354,3144,3016,16300,-205,239,-150
397346041,2440,1032,18124,-308,60,-59
397347767,2596,572,16480,-209,-84,-436
397349506,2256,1080,16896,-92,36,-570
397351213,2804,3588,16412,-61,-31,-403
397352878,2120,2576,17256,-398,-80,-58
397354528,2156,1580,16340,-417,-186,-136
397356211,2936,1892,17032,-76,-104,-607
397357872,4172,2960,14996,-190,-35,-318
397359526,3772,3316,15824,-222,97,-268
397361176,3656,2992,16332,-401,-15,69
397362867,3224,1764,15176,-182,72,-228
397364576,3468,3108,16036,-115,35,-367
397366282,3948,3480,16056,-346,344,379
397367990,3320,1148,15952,-323,-33,296
397369744,3536,1684,15960,-81,-52,-64
397371534,4688,2692,15388,-125,47,-97
397373249,4324,2824,16420,-342,461,528
397374947,2532,672,17256,-392,-203,333
397376638,2544,40,16304,-332,-247,121
397378332,3352,1396,15276,-35,-111,-354
397380051,3192,2652,17668,-277,53,307
397381804,3148,-856,16264,-404,-269,15
397383513,4156,-4,15192,-164,-112,-546
397385227,5900,3880,16068,-41,-2,-426
397386992,6156,1808,15180,-440,649,489
397388811,4524,-872,15188,-271,598,-288
397390614,3584,316,15760,-9,636,-577
397392478,3412,3168,14964,92,572,-329
397394173,2484,2444,16264,-142,859,145
397395843,1824,2184,16980,-131,236,-84
397397511,2780,2300,15812,-27,243,-94
397399174,3484,3132,16532,82,180,-76
397400856,2876,2040,17712,-202,259,572
397402587,1952,444,17476,-238,141,465
397404292,2880,464,16140,182,13,-304
397406010,3928,3176,16456,8,124,282
397407721,2952,940,16440,-60,378,289
397409430,3308,1644,16584,-37,216,46
397411149,3696,2580,16192,22,329,227
397412893,3852,3352,15344,-98,230,430
397414606,4300,3140,14464,-268,469,581
397416322,2848,1448,16368,-328,534,418
397418038,2656,792,15580,101,207,211
397419748,2288,652,16440,73,51,310
397421467,2572,220,15636,58,162,201
397423208,1672,1348,17984,154,437,-29
397424920,2184,2608,17308,170,-13,101
397426631,2736,2716,17176,136,-207,121
397428338,4440,3196,17504,-84,409,236
397430044,2376,620,16512,-121,393,522
397431767,868,1056,17504,246,-55,-275
397433508,1724,1992,16780,128,-192,-132
397435225,2216,1960,15916,16,337,142
397436938,2448,1612,15536,3,100,306
397438647,3416,512,15556,122,195,115
397440360,4436,3500,17160,24,15,-245
397442071,2528,824,15072,-171,166,634
397443848,868,168,18072,362,242,-467
397445521,1652,2504,18428,198,-68,-502
397447176,1876,2444,16596,-29,-183,283
397448877,2788,2340,16044,260,-87,-135
397450594,3816,2556,16612,141,-69,-42
397452282,2040,1956,17652,-122,-18,166
397454001,2552,2200,14688,149,-87,-56
397455663,2016,2512,16500,194,-120,-38
397457328,2600,2948,16492,-109,23,95
397458992,2612,1148,15976,8,345,57
397460661,3428,2388,17316,122,-2,-288
397462333,3888,3080,17280,-55,-104,-84
397464073,2932,1408,16508,-176,243,230
397465772,2800,1472,17032,-49,103,-47
397467483,1832,1108,18184,-161,-143,37
397469193,1908,1016,14936,-128,-257,-307
397470910,3904,3228,15688,111,-63,-375
397472632,4280,3320,16752,-40,-109,-25
397474373,3680,340,15980,-226,-195,148
397476088,4172,1044,14988,175,-143,-464
397477796,4288,2112,16020,163,41,-20
397479504,4000,1536,15556,108,129,121
397481219,3032,744,16708,203,188,-12
397482930,3636,3036,15884,302,14,-169
397484665,4712,3928,15224,245,270,77
397486380,4812,3608,16104,86,465,397
397488136,3076,404,16756,155,164,438
397489951,3044,1332,15988,387,-7,-42
397491756,3600,1796,15572,280,62,258
397493502,3392,1924,16548,290,244,239
397495220,4048,1108,16012,159,-100,321
397496894,5144,1800,16300,303,12,-151
397498548,5496,2968,16372,273,71,14
397500222,3640,1256,15868,62,138,636
397501890,2868,888,15824,190,14,-214
397503547,3544,2044,16144,164,127,-215
397505253,4108,1960,14844,203,248,194
397506947,5056,2020,15940,256,247,38
397508657,3872,1576,15672,-57,182,266
397510368,3360,656,15140,117,394,114
397513231,3448,3044,16016,340,181,-114
397514976,3292,2928,16296,18,94,353
397516697,3112,-536,16008,299,262,354
397518406,3420,-804,16732,553,219,-183
397520101,3860,2196,16400,296,66,128
397521795,2104,1048,15812,398,327,31
397523485,2452,2144,16576,528,296,-198
397525177,3200,3248,16148,259,12,183
397526874,3168,1952,16072,235,327,210
397528575,3336,2100,15928,331,322,126
397530285,1872,1284,17172,227,57,162
397531993,2024,1084,16656,428,224,-209
397533731,2620,4128,16572,207,78,77
397535441,2484,3396,15796,62,48,373
397537175,2364,2424,17408,198,113,-123
397538949,3080,2984,16780,90,235,247
397540681,1728,1300,16768,172,-128,158
397542388,1916,2044,16508,263,-106,-149
397544096,2200,2404,16048,64,118,131
397545794,2604,1788,16728,269,28,93
397547488,3104,2388,17020,225,-149,13
397549182,4208,2108,15028,-56,125,267
397550868,3140,2432,16132,239,250,-44
397552532,2916,2400,16616,117,159,179
397554187,1904,368,15976,-22,-2,31
397555840,2908,3228,15688,147,219,-318
397557546,3128,3148,15912,128,282,149
397559229,2776,1652,16268,76,49,41
397560945,3136,1628,17088,40,199,-143
397562781,3184,2736,15844,103,101,7
397564640,1992,2432,16836,204,155,121
397566395,2032,2168,17520,91,-33,184
397568192,1672,1788,17004,10,-101,122
397569883,2764,2096,15968,234,-81,-83
397571575,3660,3000,16120,228,-119,-117
397573257,4924,3648,16976,-166,298,215
397574936,3724,316,14676,-111,108,243
397576609,2692,668,16356,118,181,-208
397578341,2720,1420,15792,12,-79,-126
397580069,2864,1316,16416,-42,341,-57
397581783,2568,708,15844,16,-83,-206
397583492,2712,800,16556,93,-171,-406
397585260,5976,3428,14284,66,146,-565
397587011,5216,2832,15732,-200,200,107
397588813,2352,640,17032,-138,106,-9
397590577,2120,644,16160,181,35,-706
397592356,2708,2672,16460,325,-17,-757
397594084,3520,3964,15972,-2,29,247
397595821,3516,1168,16416,29,276,0
397597507,4140,1284,17336,177,112,-253
397599215,4988,2584,16200,225,-61,-15
397600896,3772,2536,15364,116,200,139
397602581,3228,2072,16468,79,380,231
397604268,2888,1044,15984,157,148,-20
397605945,4508,1708,14500,218,22,-213
397607625,5168,2080,16640,109,307,1
397609376,4844,2196,16132,23,342,31
397611076,3256,1316,15360,-55,273,79
397612786,2500,2436,16752,78,95,-359
397614495,3484,3172,16068,73,252,-284
397616201,3288,2764,16072,-111,243,195
397617910,3468,1260,16716,77,146,-223
397619646,2896,2536,18104,-28,-17,-27
397621353,2680,1996,16064,-44,-136,123
397623105,1744,2604,16916,122,80,-204
397624836,2168,3108,16784,-75,-20,208
397626548,2360,2024,16208,-153,-86,282
397628269,3076,988,16252,133,-35,-190
397630021,4420,2692,16700,57,134,-135
397631738,3484,1692,15740,-112,212,189
397633465,2712,1204,16152,-70,156,-30
397635190,2136,2228,16044,-50,48,-268
397636905,2500,3576,15932,-50,219,-234
397638687,2572,2596,16652,-207,176,234
397640501,2040,1700,17156,-154,99,77
397642256,1932,1460,16236,-136,-113,-189
397644037,1704,3916,17556,88,-153,-234
397645756,1712,3708,17556,-306,-147,485
397647431,1720,2132,16916,-389,-146,539
397649130,1784,1456,16728,-49,-154,-165
397650905,2456,3252,16996,-77,-257,109
397652701,2468,2548,16052,-244,105,401
397654415,2024,2008,16720,-234,27,319
397656086,1900,1684,16360,-243,-233,174
397657747,2744,2336,15868,-127,-145,-15
397659405,3256,2272,16396,-187,-84,143
397661130,2848,636,16188,-309,-35,220
397662820,2552,796,16772,-227,-289,-238
397664517,2888,1468,16916,-218,-343,-256
397666217,2904,2108,16572,-215,-284,-146
397667916,2996,1444,16556,-312,-251,-45
397669610,3180,2492,16980,-293,-418,-520
397671371,4632,3864,15916,-305,-370,-474
397673086,4884,3212,15760,-461,-62,123
397674800,3516,1284,15764,-380,-80,-3
397676510,2856,820,15828,-323,-74,-60
397678221,3764,1984,15140,-88,-203,-482
397679929,4072,2176,15876,-116,63,123
397681637,4200,952,15120,-45,210,5
397683372,4052,1428,16360,3,115,-105
397685957,5916,3840,15056,-44,80,47
397687724,4468,1960,16756,-255,364,565
397689456,3728,160,15728,-161,340,480
397691180,2244,864,17664,110,-155,-252
397692981,3164,2620,16580,-105,-165,246
397694784,3428,1212,15936,-109,155,255
397696488,3400,1068,16344,-76,-24,49
397698148,4732,2436,16560,-44,-125,-208
397699800,4968,2840,14880,-277,12,352
397701453,3908,928,15576,-237,175,435
397703105,3108,320,15100,-132,89,-259
397704814,3276,2064,16492,-92,100,-354
397706507,4336,2548,15708,-65,164,-194
397708221,4332,1388,16272,-145,225,-17
397709930,4060,1144,15024,-219,139,-205
397711637,2240,2184,17688,13,257,-473
397713347,3136,3144,16424,-3,28,-460
397715080,3108,3072,16108,-288,176,-97
397716789,3420,2128,16200,-30,670,-308
397718500,2632,2348,18044,25,437,-242
397720209,2700,1888,16884,-127,74,-39
397721919,1524,1368,16624,2,289,-178
397723633,1096,3660,17292,119,170,9
397725367,736,3944,17604,-21,-19,265
397727076,2600,3056,15848,-201,-262,286
397728784,4472,1868,16012,-89,267,289
397730491,3400,1864,16952,-38,176,264
397732199,2008,2296,15892,-78,-34,404
397733908,1984,2352,16620,-165,-248,325
397735650,2528,2336,15644,-187,38,565
397737390,2856,1268,15436,-132,94,654
397739156,4008,1152,16872,39,-22,243
397740932,4392,2688,16500,-266,96,479
397742672,2216,-156,15876,-99,197,505
397744384,1060,288,17256,98,159,39
397746186,1388,2504,16700,-202,-50,171
397747868,1728,1852,17172,-240,-22,282
397749532,2460,932,17196,-246,-279,218
397751196,4108,48,16128,-93,-102,-220
397752859,3204,3120,16084,-233,-158,-120
397754519,3136,2556,15604,-292,-50,125
397756228,2772,1532,16640,-273,-231,-245
397757922,3156,1448,15112,-329,39,-291
397759631,3860,2612,15680,-124,84,-459
397761345,4396,2724,15184,-219,121,-204
397763057,3580,960,16272,-308,136,-308
397764764,3532,2416,16004,-83,238,-526
397766498,3096,3284,16060,-78,99,-451
397768208,2636,3536,16536,-197,180,25
397769918,1832,2484,17648,-350,-99,54
397771644,3080,1588,15228,-113,-171,-232
397773371,3596,2984,16708,11,-200,-439
397775081,5340,4596,16620,-320,294,290
397776822,3912,1216,15936,-458,-237,466
397778535,3316,404,16144,-207,-48,-118
397780245,3748,1132,15568,-111,78,-177
397781954,4112,2460,15792,-243,316,157
397783663,3808,652,16304,-320,30,174
397785376,4056,840,15376,-266,48,-157
397787226,5272,2504,14600,-240,202,-89
397788958,4256,1896,16472,-221,519,175
397790671,3340,-592,16348,-355,346,178
397792377,2440,-1220,16468,-164,251,-245
397794148,3684,2532,16056,71,218,-607
397795917,3708,2952,16392,-220,493,153
397797732,3288,624,17320,-230,267,-37
397799406,3604,220,16936,-40,251,-295
397801076,3288,2368,16068,-1,-36,-342
397802737,2324,2464,16908,0,358,-149
397804390,2984,2656,16928,-60,209,-134
397806041,3540,1800,15668,-139,81,-59
397807738,4764,3012,15040,-43,243,-207
397809432,5392,3344,14372,-46,577,44
397811152,3428,1540,16708,-279,299,428
397812872,2556,284,14776,22,512,-121
397814587,3624,3864,15308,165,471,-240
397816300,4056,4456,15252,29,630,314
397818050,2336,2256,17388,-150,391,484
397819764,3132,1316,15888,2,453,331
397821481,2148,1576,17468,107,439,241
397823199,2140,2768,16624,-28,251,507
397824917,876,1068,17472,-95,259,490
397826624,1832,2068,17760,46,42,241
397828356,2456,2184,17308,-42,-32,373
397830064,3252,2004,16672,-126,266,252
397831782,2788,1736,17388,-219,145,402
397833500,1736,-12,15700,-153,-91,265
397835217,1752,296,15600,-26,-50,-96
397836983,2980,2448,15968,-132,420,95
397838757,3184,320,15616,-156,221,223
397840489,3936,1632,15640,24,180,-411
397842200,3788,2220,15400,-83,360,-168
397843888,1728,1624,16780,63,454,-50
397845573,1492,2636,17424,-88,80,-229
397847256,1840,2516,16276,-195,88,-27
397849002,1224,2144,17328,60,123,-279
397850711,2972,3432,17744,-41,127,-55
397852432,2672,2856,17760,-280,-93,188
397854142,2284,1284,17012,-197,-18,-71
397855850,2236,3032,16604,-31,-206,-286
397858408,2628,2672,16568,-259,60,37
397860208,3160,1756,16404,-447,-141,195
397861912,3776,1096,15096,-118,-181,-308
397863607,4704,1960,15300,-221,123,-80
397865298,4732,1504,15448,-362,252,-17
397866989,3620,956,15456,-250,112,-188
397868681,3184,1868,15780,-180,129,-297
397870375,3332,1612,15632,-228,245,-178
397872079,2960,1532,16748,-196,349,-346
397873784,3660,1812,15812,-175,-20,-466
397875486,3852,2380,17356,-200,181,-469
397877201,3940,2292,16424,-267,183,-389
397878918,2284,812,17648,-255,107,-337
397880656,2332,1456,17104,-79,-107,-722
397882366,2356,2368,17300,-111,-140,-657
397884077,2652,1816,16620,-75,14,-311
397885789,4200,2904,16880,90,-91,-630
397887537,5816,3228,15252,-166,-58,76
397889282,4732,1888,14924,-123,136,224
397891087,3792,448,15252,166,283,-172
397892781,3648,1300,15404,146,-7,-138
397894952,3408,2460,15332,140,200,17
397896799,4916,1636,14488,132,560,252
397898510,4780,332,16968,176,395,-35
397900215,4044,1180,16840,127,306,-97
397902031,3100,1412,16792,226,664,4
397903832,2452,2356,16956,101,393,-1
397905548,1448,1160,17220,115,265,-59
397907217,2252,2036,17280,238,249,-308
397908879,2732,2784,17232,41,51,221
397910545,1576,828,16608,11,-1,245
397912283,1084,556,16180,178,-12,6
397913962,2212,1840,17428,391,-208,-228
397915652,3688,2476,15664,161,-26,242
397917335,3576,1740,15840,146,175,235
397919014,4172,1704,16448,333,251,-44
397920695,3996,1924,16268,258,165,86
397922431,3948,1576,15420,223,269,119
397924133,2496,2464,16232,401,456,39
397925843,1468,1372,16520,269,167,333
397927552,2036,1308,16540,474,151,-185
397929259,2724,2700,16788,468,126,-87
397930966,3216,2784,15900,271,87,354
397932697,2660,2448,17748,207,-9,280
397934405,2332,1980,17124,191,-20,349
397936121,1528,1432,17396,228,-229,165
397937847,2308,2524,16736,255,-151,46
397939636,2776,1988,16408,116,-14,262
397941451,3548,1088,16712,266,-36,126
397943296,3624,2256,16628,207,-213,-18
397944984,3516,2244,14700,21,135,328
397946650,3028,1000,15300,223,314,-40
397948311,2792,1480,15864,249,258,-132
397949973,2836,2340,16088,156,-34,-109
397951630,2940,2792,15124,215,178,5
397953335,2948,2216,16452,267,300,-56
397955025,2868,1852,16932,149,-63,-90
397956741,2892,2592,17348,171,29,-216
397958454,2880,2872,16416,61,-32,177
397960165,2224,1480,16944,29,-63,184
397961871,2584,748,16728,183,-4,-278
397963606,3192,2228,16596,210,-64,-341
397965316,3272,2876,16708,136,-186,-201
397967023,3340,2400,15788,15,-51,19
397968732,3492,1448,15604,47,104,-168
397970441,4136,2404,15580,40,-81,-215
397972189,4048,3048,15432,-42,-60,-211
397973939,4064,2136,16000,-224,215,18
397975661,3604,72,15852,19,137,-221
397977368,3180,936,16436,65,18,-504
397979072,3368,2492,16284,-46,-100,-310
397980783,3136,1736,17172,-55,220,-96
397982494,3444,-568,16060,113,60,-366
397984205,2772,312,17684,199,-117,-709
397985919,3924,2972,16240,114,-55,-547
397987634,3928,2208,16132,-71,84,-193
397989363,3472,804,16488,-59,37,-286
397991100,3488,896,15764,160,-38,-924
397992815,3636,3252,15832,199,-96,-676
397994607,3760,3292,15800,-97,60,-168
397996289,4304,1120,14640,-125,201,-131
397998009,4340,1632,16152,356,261,-893
397999708,5344,4352,15508,153,264,-246
398001406,4104,2288,15292,55,622,-33
398003094,2984,1588,16112,155,571,-68
398004822,2004,1692,16468,356,327,-353
398006487,3160,3440,15636,333,277,-164
398008156,3296,3404,16444,271,405,152
398009816,2680,1336,16748,254,276,333
398011478,2684,1232,17736,415,37,-32
398013141,2736,2604,16996,430,-42,-24
398014854,2304,3740,16556,252,147,430
398016564,2836,2516,16780,163,129,513
398018287,3504,2236,16120,125,213,420
398019996,3784,1268,16704,27,6,531
398021748,2940,988,16848,233,168,246
398023469,2392,132,15668,65,163,341
398025205,2104,-216,16260,192,290,31
398026913,2240,2008,16268,171,52,-74
398028623,2436,892,15196,127,36,-57
398031491,3856,2168,16616,8,573,-5
398033245,2392,1080,17324,50,415,-17
398034964,696,2188,17508,256,-30,-526
398036832,1016,2584,16440,215,115,-305
398038617,1552,3744,17560,249,187,-278
398040360,2100,2872,17300,95,-167,-17
398042078,2968,2784,16824,109,-101,-311
398043773,2316,4612,17096,22,-47,-58
398045467,916,2416,16644,-24,-19,163
398047245,364,2204,17464,-44,-289,-125
398048934,2088,3500,16312,-211,-199,-133
398050618,2744,2336,15416,-85,-158,0
398052300,3308,2508,16496,-49,-228,-175
398053983,4316,3164,16328,-481,-72,168
398055662,2300,1304,15992,-406,-120,79
398057398,2108,2016,17204,-170,-175,-236
398059101,2272,2356,16784,-347,-275,-108
398060813,2376,1320,16508,-407,-123,54
398062521,2204,956,17220,-153,-466,-245
398064229,4000,1312,15560,-145,-341,-266
398065941,3012,1444,17172,-295,-363,-199
398067671,2988,1556,16912,-166,-263,-203
398069378,3032,1372,15732,-151,-392,-314
398071087,2552,1468,16600,-213,-332,-399
398072794,4028,2252,16052,-233,-162,-638
398074499,5408,3216,15296,-238,-108,-602
398076210,4980,3352,16164,-243,-155,-451
398077942,4792,2632,15096,-311,-88,-272
398079651,4384,1612,15288,-300,-51,-272
398081363,4448,1208,15420,-98,135,-311
398083116,4260,1540,15848,-69,105,-360
398084861,4300,1680,15252,-21,112,-117
398086590,4568,3088,16112,-29,35,-328
398088322,5340,3320,15440,-165,259,118
398090023,4752,1768,16056,-115,368,338
398091708,3632,268,16036,-55,86,86
398093393,2796,968,17276,-32,-5,-215
398095078,3648,1960,16252,-29,109,-108
398096769,3224,1832,16508,-150,-2,282
398098603,4324,1316,16524,-43,137,-144
398100361,3972,1880,16584,-273,-3,90
398102071,2664,1424,16252,-205,-7,103
398103751,2332,2236,16052,-38,-147,-294
398105423,3792,2808,15452,-262,127,105
398107093,3284,2096,16356,-282,229,182
398108827,4028,1308,15640,-75,106,-94
398110514,4624,1748,16456,35,241,-182
398112236,3800,2272,16292,-70,234,-8
398113951,1712,644,15604,-36,435,49
398115649,2136,2868,16968,224,183,-611
398117346,2780,3116,16388,-93,185,309
398119111,2296,1388,16476,-34,248,312
398120825,2400,1400,17292,189,289,-223
398122547,1560,2280,18248,-21,-241,50
398124264,1388,2236,16560,26,-148,58
398125976,1556,3640,17160,115,-181,-93
398127686,2172,3208,17064,-251,-149,366
398129423,3036,2088,16804,-174,-292,71
398131135,3296,2460,16444,-116,-323,73
398132843,3184,2408,15448,-230,-417,249
398134553,3292,2196,15796,-150,112,110
398136268,3156,2676,17028,-253,42,129
398137984,3388,1468,14936,-356,99,412
398139744,4248,2092,14928,-140,265,-58
398141485,3320,732,16728,-318,447,422
398143173,1992,-180,16736,-214,302,226
398144847,1456,1084,16828,-5,14,-347
398146521,1544,1776,16972,-136,-2,-15
398148190,1052,1564,17288,-126,61,-20
398149858,1964,1248,17400,-223,-398,-106
398151572,2328,1620,18240,-128,-494,-512
398153281,4056,2604,16132,-192,-409,-460
398154978,2612,1288,16912,-300,-177,-148
398156669,2540,1532,16520,-232,-342,-742
398158452,3252,3184,16128,-298,-94,-656
398160254,3864,3516,15096,-282,41,-402
398162002,4176,2992,15264,-389,110,-244
398163709,3820,1284,15772,-406,-59,-478
398165409,4220,2640,15760,-98,187,-641
398167109,3884,3404,15992,-112,26,-356
398168830,3164,3068,16200,-196,102,-122
398170640,2780,2628,16236,-291,-133,-79
398172445,2756,2372,16960,-56,-203,-195
398174186,3912,3112,15908,-64,-243,-186
398175888,5820,3620,16172,-316,59,74
398177598,5248,1284,16172,-468,11,374
398179304,3508,500,16676,-204,-138,-70
398181035,3280,796,15844,-257,-196,-130
398182745,4084,1720,15896,-249,245,-139
398184450,3392,320,15152,-308,48,147
398186158,3540,-392,15812,-151,-20,-161
398187873,5416,3684,14976,-136,84,-570
398189575,5824,3920,15540,-432,457,362
398191374,4712,-680,15480,-408,494,476
398193076,3964,-2020,16448,-192,634,-129
398194746,3564,740,16060,-29,314,-375
398196411,2180,2052,17108,84,478,-184
398198113,2380,2084,17152,-2,302,-79
398199844,1564,252,17548,-4,264,-67
398201654,2800,2904,16276,172,-8,-496
398203824,2692,3312,17416,-88,6,142
398205494,2968,332,16340,-210,73,80
398207150,2616,192,16372,17,141,-360
398208805,4148,2420,15944,38,26,-360
398210456,3900,2572,16076,-74,428,-222
398212106,3824,2828,16488,-134,374,-227
398213826,2760,2348,16316,-196,258,-49
398215556,2640,3044,14956,-51,224,-192
398217276,2460,3900,16504,-123,387,54
398218998,2852,3484,16204,-241,232,234
398220723,3288,1836,15168,-189,165,151
398222506,3952,3512,15776,-99,311,-70
398224225,3140,3652,16712,-201,462,368
398225927,2100,1244,16420,-188,58,412
398227620,1908,580,16976,-58,-10,112
398229321,2516,1044,16360,50,254,176
398231019,2332,1452,17636,75,169,117
398232776,4132,2104,16440,-94,-88,209
398234481,4228,1336,16268,-222,348,210
398236203,3100,1524,16064,-207,216,94
398237920,1392,1360,16236,-204,197,92
398239765,2352,556,16048,-253,78,-168
398241542,2780,900,16444,-99,205,-301
398243401,3220,1148,15276,-102,-47,-293
398245114,4676,1748,15776,-27,272,-571
398246772,3116,4184,17508,-359,57,-199
398248428,1948,1408,16356,-237,114,-53
398250077,1484,1620,17148,-86,-11,-433
398251729,2404,2892,16288,-296,270,-266
398253419,2508,1916,15892,-194,-59,-270
398255110,3444,1796,15536,-41,76,-375
398256822,4496,2292,15064,-216,-135,-226
398258531,2612,2532,17508,-232,407,-249
398260244,3280,2164,15004,-279,122,-75
398261957,2320,1288,17012,-197,94,-226
398263691,3756,2948,15296,-286,121,-314
398265399,3048,2008,16716,-212,372,-151
398267108,2716,2136,17668,-243,-100,-269
398268815,4304,2312,16136,-248,199,-217
398270519,4836,2876,15000,-295,159,-40
398272227,3176,2088,16232,-292,213,35
398273959,2596,2520,16152,-276,111,-44
398275666,4048,2872,15584,-251,256,-53
398277383,4440,2552,15404,-391,123,290
398279093,3960,1500,15088,-374,346,370
398280797,3284,132,16272,-132,178,-91
398282544,3876,808,16836,-84,222,36
398284280,4192,516,14588,-171,318,59
398285994,3240,560,16664,-53,581,-38
398287830,3672,1952,16440,-178,223,-46
398289653,4432,1392,15872,-162,284,-254
398291520,4100,2160,16348,-260,353,38
398293262,1604,-324,17116,-128,352,31
398295003,1616,-416,17060,-56,57,-374
398296688,2840,2168,16248,62,174,-528
398298341,3572,3312,15848,6,275,2
398300034,4380,3060,15888,10,286,55
398301708,4404,2444,17188,-131,372,192
398303364,3088,1196,15428,91,279,85
398305023,1840,1756,16716,255,290,-15
398306735,2748,2112,15528,92,416,195
398308411,2876,2116,16556,-40,340,191
398310096,3092,1988,16064,73,324,256
398311778,4740,1812,16252,220,237,14
398313459,3840,2120,16428,-153,253,550
398315142,1736,1120,16088,-138,350,543
398316875,1528,1072,17272,217,71,-177
398318572,3380,3276,16408,-48,-144,199
398320289,3416,544,16460,-12,513,329
398322005,3116,616,17356,92,225,-35
398323715,3220,800,17032,-26,108,104
398325425,2064,2120,16256,159,212,-140
398327158,2200,2924,17204,166,243,49
398328867,1576,2072,16288,-94,126,434
398330574,2772,672,15620,184,74,-187
398332284,4256,2684,17320,198,204,-42
398333994,4168,2100,16344,13,244,349
398335714,1592,200,15724,101,189,79
398337501,1568,1672,17308,318,10,-449
398339205,1916,2592,17248,158,46,123
398340954,2316,1776,16780,96,8,180
398342688,3348,724,16884,91,-9,-251
398344417,3448,1644,16588,239,54,-332
398346131,2276,2444,16980,252,-152,-275
398347914,1736,2652,17288,110,-102,-37
398349603,2696,2144,14848,-79,28,-9
398351284,2660,1612,15404,272,-145,-215
398352966,3364,2248,15680,422,-143,-255
398354645,5612,4076,16388,87,-12,59
398356324,3460,1396,14560,-120,90,576
398358054,2388,312,15240,186,179,116
398359754,3036,3192,16732,331,-90,-312
398361462,2932,2432,16456,-132,93,606
398363175,2872,712,15408,-59,186,454
398364882,2828,612,17364,295,-29,-340
398366588,4212,2680,16428,110,60,-52
398368320,3428,2128,16708,-24,67,149
398370028,2992,1496,16344,-78,-65,160
398371734,1636,844,17020,-21,-190,-200
398373451,3256,2388,15228,170,-2,-325
398376372,4324,2944,14768,-206,-277,29
398378128,5140,1488,14940,-133,211,0
398379842,4932,1912,15136,143,85,-372
398381538,3784,2468,16760,22,156,83
398383229,3324,796,14940,-84,138,-13
398384930,3076,676,14932,64,516,-159
398386694,2936,1580,16372,325,88,-331
398388565,3120,2844,16992,184,-78,-123
398390285,4368,2912,16020,26,287,76
398391994,4220,1224,16440,43,209,257
398393736,4064,148,16244,444,293,-334
398395419,3048,1828,16704,94,-41,-112
398397097,2828,1376,15772,171,96,-45
398398769,3236,2604,15808,321,69,-238
398400445,3904,1500,15956,138,65,66
398402126,4372,1348,15412,212,219,-106
398403797,4332,2772,16296,298,70,-152
398405461,3796,1992,15024,50,85,279
398407123,3560,856,14824,165,464,95
398408834,3844,3220,16404,364,243,-300
398410526,3832,3164,16752,110,257,485
398412225,4212,520,14400,159,582,221
398413916,3496,252,16892,373,600,-86
398415644,2952,2112,15948,283,232,78
398417334,2128,1760,17196,319,387,-98
398419084,2100,2928,17596,175,144,-144
398420865,1660,4,16784,50,373,290
398422747,3132,820,16600,453,103,-724
398424589,2268,1664,18012,-7,38,55
398426369,1508,108,15456,184,166,-485
398428121,1156,1204,17080,353,93,-844
398429937,2668,3516,16648,229,8,-532
398431629,2424,3664,16624,133,148,-225
398433303,2420,2460,15532,27,38,-70
398434978,2320,1112,16176,193,211,-211
398436649,3088,3936,16360,453,69,-527
398438318,2592,4384,16704,89,-23,326
398440065,2348,3168,15680,-24,-37,375
398441747,2452,1864,16456,200,157,-83
398443488,3316,2228,16116,234,-12,91
398445234,2536,1492,17328,192,47,158
398446942,2500,1548,16984,16,-111,54
398448625,2028,280,16744,71,184,11
398450336,3204,2128,16388,271,-5,-410
398452054,3372,2748,17488,86,-127,-192
398453737,2792,1344,16244,-213,-77,98
398455416,2472,680,16364,93,32,-474
398457087,2704,1952,16740,146,-87,-627
398458765,3324,3680,16500,-50,-88,-171
398460443,3284,2524,15760,-184,-199,-38
398462142,3004,1648,16988,96,-78,-407
398463859,4240,2692,15788,121,-114,-540
398465575,4160,2764,16044,4,13,27
