Time_us,Accel_X,Accel_Y,Accel_Z,Gyro_X,Gyro_Y,Gyro_Z
189645602,3352,1516,15524,817,6615,3888
189647484,2268,1956,16948,1363,2912,3730
189649303,3288,848,14068,468,2858,3880
189651199,1984,916,16796,-135,857,3890
189652985,1800,1316,17328,141,-179,1933
189654748,4244,3336,15528,-78,-93,-979
189656440,4484,4452,16504,-194,183,-568
189658098,4108,4188,17140,-430,415,431
189659751,2572,-644,16856,-351,249,450
189661469,1996,-1808,17960,-144,187,-32
189663146,2804,872,16680,-13,224,-276
189664888,2656,476,15700,-57,102,171
189666645,2444,380,17136,302,105,-280
189668357,3768,1896,17148,274,17,-352
189670055,3240,1332,16072,100,-208,364
189671774,3092,108,16040,251,107,92
189673461,2460,36,17052,316,41,-120
189675158,3388,2268,16540,413,46,-188
189676903,4452,2256,15732,228,253,217
189678669,4716,1332,15212,103,421,57
189680400,3340,404,16552,177,570,2
189682165,1980,2484,16796,423,329,-557
189683860,1536,3664,16960,32,156,31
189685563,1340,1604,16888,41,147,25
189687264,1312,1320,16524,189,53,-202
189688961,2152,3160,17460,288,-167,-458
189690691,3124,3224,16276,-86,-55,217
189692483,2344,2384,17560,-37,-78,57
189694215,2324,2016,17268,69,-149,-75
189695904,2680,2768,17216,257,133,-204
189697588,3048,3656,17944,145,27,21
189699264,2876,-144,15856,-35,-68,589
189700946,3112,40,15780,472,80,-489
189702678,2852,2952,16452,259,-8,202
189704419,2668,2096,15416,171,67,454
189706138,2552,1848,15180,128,-119,-16
189707851,2500,808,16312,208,68,-82
189709597,2592,1996,17208,319,-30,-97
189711372,2964,1948,17040,199,-72,4
189713255,2548,520,16828,76,-113,-135
189715003,2076,1216,17352,324,89,-441
189716721,3164,3908,16532,322,-25,-449
189718444,3116,4516,17432,116,29,-102
189720204,2184,2064,15712,-163,-176,232
189721977,1220,1040,16940,407,-92,-470
189723793,2420,3784,17208,375,-334,-240
189725588,3316,3976,16404,168,-373,103
189727365,3384,1876,15244,156,-209,207
189729090,4088,2260,15672,396,-72,-119
189730781,4376,3000,15728,138,-111,164
189732504,5348,2020,14340,82,188,288
189734263,4076,1804,16164,116,230,196
189735955,2908,448,15380,154,261,-18
189737650,2944,3132,17496,334,310,-540
189739394,3668,4512,17520,115,137,-42
189741099,2144,936,16824,-177,-143,321
189742830,2768,740,16804,81,28,-393
189744531,3276,1972,16856,75,-58,-361
189746221,3512,3784,16916,-53,-158,-108
189747900,3044,1932,16340,-233,-266,137
189749635,3016,1008,16088,-136,-122,-70
189751368,3664,1284,15520,164,-79,-248
189753164,5004,2092,15716,175,-69,-190
189754969,4384,352,16244,36,159,89
189756647,4516,-160,14212,131,327,-138
189758307,4300,1480,15816,444,408,-568
189759968,4436,3864,15272,245,562,-33
189761632,4136,3448,15840,117,687,73
189763290,2792,1516,16184,-12,527,295
189764996,1512,-708,16488,352,377,-223
189766690,1864,372,17056,541,284,-558
189768432,2532,3132,17520,190,180,-8
189770249,1256,1180,17368,-11,31,59
189772130,2660,1452,17716,283,111,-459
189773998,3084,3148,17448,182,80,-207
189775819,2704,1800,15808,42,194,115
189777545,792,1260,17940,133,108,-131
189779214,2552,1564,15320,43,109,-224
189780912,3060,1920,15540,380,205,-485
189782581,3776,3680,16468,334,198,-445
189784241,3648,2620,15996,-228,34,376
189785902,1964,-412,15460,285,394,-406
189787600,2124,1580,16568,476,272,-792
189789331,2724,3656,16936,193,57,-155
189791066,3144,2472,15948,108,389,-20
189792793,3256,976,16440,116,283,-65
189794590,2644,368,17208,258,133,-284
189796502,2432,2852,16884,274,92,-287
189798223,1376,1828,17216,168,251,-65
189799914,1384,1624,17064,143,-22,-151
189801610,1376,1092,16888,196,-80,-208
189803302,3452,2948,16800,399,-88,-571
189804988,3628,3516,18132,-98,12,333
189806740,2112,1600,16852,-213,-403,307
189808461,1216,968,17092,313,-137,-448
189810258,3192,3088,15912,262,-195,-153
189812064,3668,2040,15016,80,-135,66
189813809,4460,1528,15020,190,5,-264
189815538,5264,2016,15212,267,101,-320
189817303,5080,4180,16380,136,353,-235
189819643,4040,2064,15276,-138,610,506
189821331,1520,960,17024,57,217,-66
189823006,1280,844,16436,256,138,-300
189824679,1440,2148,17060,388,133,-400
189826350,3040,3812,16536,134,-16,282
189828114,3432,1308,16580,74,34,64
189829819,2936,1476,16784,51,-128,-6
189831523,3012,1216,15592,282,31,-141
189833220,3364,3172,17776,213,-14,-102
189834923,3108,1360,16128,-86,62,294
189836621,2900,424,16056,125,293,-157
189838424,4664,3352,16096,313,172,-349
189840262,4672,3372,15484,-105,85,267
189842044,2984,1852,15512,-134,216,-106
189843802,2472,2060,15312,-55,333,-179
189845548,2376,2864,15752,34,9,-229
189847272,3332,2920,15524,-99,19,51
189849065,2820,1476,16916,-149,34,-144
189850755,4096,1452,16000,-71,170,-313
189852469,4652,1864,16464,50,132,-350
189854189,4120,2656,16576,-101,218,0
189855865,3228,1540,16724,-147,346,110
189857531,2144,1380,16740,-4,203,-264
189859257,2408,2584,16388,31,132,-236
189860942,2940,3444,17132,22,211,-218
189862633,3584,3688,16672,-119,85,96
189864316,3940,312,15688,-38,10,210
189866010,3536,1164,15828,133,81,-256
189867701,3152,2052,16280,34,76,-127
189869447,3124,928,14416,-3,96,92
189871162,3992,1844,16008,88,177,-259
189872887,3744,2192,16284,9,170,-148
189874596,3984,1124,16036,104,414,-123
189876308,4352,2160,15364,31,327,-296
189878018,2192,2360,17532,-105,343,-310
189879753,1872,2596,17012,-175,339,-224
189881482,2500,3020,16672,22,301,-460
189883210,3052,3636,17324,-309,122,153
189884926,1996,980,17644,-430,22,391
189886635,1324,284,16984,145,-54,-681
189888344,2168,3304,16820,36,-263,-185
189890058,2824,1956,15528,-95,-184,57
189891854,2868,1540,16392,-15,6,-50
189893648,3524,888,15724,-94,-319,-102
189895380,4288,2300,15800,179,-12,-756
189897093,5140,5056,15228,-208,421,-52
189898814,3180,2948,16244,-399,296,362
189900541,1708,404,15652,-84,199,-417
189902250,2124,1796,16408,25,82,-620
189903956,1560,2828,17336,-133,120,-208
189905685,1172,2648,16368,-201,40,-121
189907379,2048,3020,17696,-161,-421,-438
189909088,2520,4212,18164,-188,-176,-32
189910833,2996,3560,15852,-207,-128,165
189912590,840,1880,18868,-212,-84,169
189914298,720,-548,17900,-206,-382,18
189916034,1908,2128,16116,235,-321,-520
189917734,2664,3972,15996,170,-226,-142
189919435,3692,2924,15544,-266,-140,266
189921143,4044,1608,15968,-282,-278,124
189922870,3672,1168,14764,-132,-235,119
189924577,3908,2724,14500,90,60,-285
189926276,3644,2304,16420,-351,165,285
189927970,3604,740,15480,-410,382,284
189929695,3016,848,15996,3,-129,-534
189931406,4392,3700,16348,-160,-30,-110
189933127,3172,1768,16780,-345,364,110
189934846,2180,904,17856,-291,139,-42
189936564,1752,1324,17068,-76,-322,-304
189938264,2892,3504,15752,-74,-226,-182
189939963,2788,3416,15968,-91,19,110
189941712,3576,1740,16664,-198,-142,86
189943424,4580,1120,15792,-107,-171,-98
189945127,4592,3272,15636,-31,-43,-61
189946822,5480,3332,13888,-82,236,132
189948508,3872,2924,17036,-236,305,53
189950190,3740,1640,15552,-197,462,177
189951884,2812,1548,16576,-35,238,-47
189953703,3916,3124,15084,-41,265,141
189955446,3220,1076,16204,-287,38,414
189957150,2776,-8,16644,-37,163,-2
189958827,2852,968,17216,-3,-20,-130
189960499,4080,2864,15568,-158,-137,59
189962171,3976,2224,16500,-391,96,160
189963903,4644,804,15852,-400,177,227
189965590,3444,-696,17252,-144,137,-392
189967285,3736,1244,15692,-81,289,-612
189968980,3456,2040,16848,-111,442,-548
189970673,3108,2136,15808,-449,236,-51
189972368,2608,280,16444,-132,270,-653
189974086,3076,2372,16492,-39,282,-892
189975781,3560,3812,15840,-153,182,-284
189977473,2888,2788,16208,-262,-102,14
189979169,2216,452,16344,-140,84,-412
189980872,2700,1420,15960,-42,-32,-563
189982578,4088,2556,15992,-115,275,-277
189984344,4600,1004,16284,-244,102,-244
189986055,4608,392,16060,-154,250,-298
189987766,3340,1756,16112,-26,181,-578
189989485,1772,2824,17168,-78,333,-410
189992140,1900,1492,15160,-242,281,-171
189993942,2404,1188,16096,16,386,-545
189995821,3548,4416,16220,-225,195,-292
189997522,1064,1928,17120,-252,333,-26
189999202,1372,2472,17028,-170,67,-193
190000876,376,1384,18576,-229,-59,-88
190002548,1872,1860,16132,-45,120,-267
190004219,1768,3500,17636,-25,-73,-211
190005937,2692,3248,17000,-131,-323,22
190007635,3784,3264,16616,-158,-40,97
190009363,2988,1612,14344,-289,290,433
190011121,1604,856,16216,-58,433,66
190012890,2812,2320,15496,-188,-54,116
190014639,2024,-396,15904,-40,118,-15
190016357,2960,2500,16352,16,68,-28
190018045,3588,1616,15772,-175,49,268
190019723,3412,1928,16948,-104,-18,-188
190021423,3464,1388,16244,-214,35,268
190023117,2840,308,16904,-155,-48,81
190024828,1992,1664,16472,-94,-68,-294
190026735,2660,2272,16948,-183,96,-222
190028612,3792,1860,17172,-109,-133,-258
190030469,4028,1668,15072,-131,-93,-398
190032320,3912,3224,16772,-61,279,-481
190034118,3876,3472,16252,-89,160,-212
190035848,2564,2196,16204,-184,-89,-145
190037640,3688,3180,14408,-127,199,-304
190039330,3684,3652,16448,-120,222,-150
190041001,3936,3304,15820,-207,89,63
190042706,4808,1660,15796,-282,193,-86
190044396,4716,2812,15116,-278,316,-68
190046046,4140,2612,15528,-303,424,147
190047764,3600,1728,16036,-304,274,-27
190049437,3244,1352,16672,-441,338,47
190051112,2968,1080,15620,-365,230,20
190052796,3584,2268,16532,-178,544,-311
190054491,4116,2196,16012,-573,471,267
190056169,2892,664,16836,-478,517,142
190057899,2892,1244,16788,-224,172,-182
190059570,1928,268,16544,-250,292,147
190061249,2184,1436,17284,-26,264,-293
190062929,2668,1856,17160,-53,169,-35
190064606,3508,1936,16384,-60,-176,-70
190066290,4592,2728,16228,-119,537,22
190067972,3952,1752,16760,-209,382,222
190069698,2924,-128,15828,68,331,28
190071420,3140,572,15484,158,322,-383
190073139,2788,2020,15144,62,423,-364
190074851,2372,2504,16100,-5,777,-51
190076563,3268,2324,16676,-43,362,-162
190078345,3444,2084,17572,-229,484,-211
190080072,2092,1572,16848,-198,454,-68
190081793,168,1404,18196,-54,316,-296
190083501,768,1236,16696,-216,-125,-491
190085198,2156,1588,16724,-56,91,-716
190086892,2820,3540,17360,-97,124,-188
190088649,2048,1896,16932,-120,-146,-267
190090371,2072,3288,16604,-104,-228,-223
190092102,2032,3036,15952,-55,-29,-55
190093823,3872,3420,14488,-10,139,-97
190095623,3320,2512,16636,-266,260,433
190097388,2720,476,15924,190,207,-98
190099192,3940,1700,16040,366,265,-227
190100882,2896,880,15252,-66,193,669
190102560,848,500,17196,207,515,-253
190104233,1084,1900,18248,183,270,-126
190105896,1472,1348,17384,190,-181,121
190107558,4380,2884,15764,64,-108,97
190109273,4016,1912,18124,-110,377,290
190111011,1864,-248,17124,-64,-125,93
190112768,772,1188,17532,277,-706,-338
190114497,2564,1580,15936,118,-429,-57
190116227,3152,1156,16356,111,-50,-41
190117941,2776,1092,16112,142,-293,112
190119671,5196,1772,14948,388,-413,-529
190121475,5568,3460,15504,175,7,62
190123270,5556,2004,13788,174,253,237
190125046,2348,1088,16488,368,394,-340
190126780,3040,3904,16296,217,344,-370
190128477,2080,2992,15600,100,315,262
190130176,2060,2568,15952,239,212,-4
190132121,5756,2276,15504,107,335,-34
190133872,2548,1808,17456,-4,104,104
190135582,748,2888,18608,318,-179,-158
190137271,1140,3784,18284,126,-432,1
190138956,2364,1268,16068,-89,-7,157
190140667,3372,2088,17748,233,-117,-143
190142423,4796,2004,15992,69,-451,142
190144180,5536,2476,15612,-17,-306,63
190145931,4136,1712,14920,-21,156,374
190147657,3584,1580,15528,115,25,-52
190149363,3560,2044,15784,-5,-31,38
190151063,4204,2060,13920,-113,315,-71
190152736,3840,1388,15444,9,245,34
190154403,5072,884,15944,172,274,-376
190156118,5652,2272,16004,-39,384,-314
190157791,3672,1272,15628,-99,669,93
190159442,988,652,18444,228,393,-350
190161156,1356,1116,18056,205,152,-378
190162835,1032,2172,18396,161,69,-325
190165227,1780,3452,17612,172,-40,-69
190166921,3300,956,17208,34,73,49
190168608,3020,720,17552,253,-82,-392
190170296,3708,1884,15992,185,-214,-232
190172061,1904,1116,16404,215,-218,-218
190173755,3328,2172,15328,105,319,-91
190175453,3464,612,15272,253,337,-285
190177149,3612,1912,16764,277,17,-613
190178844,4856,2936,15384,24,132,-113
190180542,3424,1688,14724,34,554,-261
190182261,1868,1348,16360,113,479,-303
190183956,2076,2396,17324,215,170,-729
190185650,2640,3880,15932,25,139,-162
190187345,3160,3064,15580,110,397,-65
190189038,2032,1220,18236,189,220,-147
190190735,456,1284,18464,278,-38,-306
190192458,724,2636,17304,310,-197,-431
190194153,1256,4372,17692,315,-71,7
190195921,2416,1508,16132,6,141,539
190197721,2724,880,16988,441,116,-483
190199430,4644,3340,17024,437,87,-546
190201130,4252,4380,16048,-50,-70,589
190202903,1984,968,15128,61,304,332
190204589,2196,-72,17188,337,138,-133
190206274,2856,1164,16772,246,-205,-157
190207956,3080,508,15872,155,-52,305
190209652,2428,1500,17528,329,104,-101
190211353,3132,1656,16704,235,-250,27
190213063,3696,2268,16464,197,-66,-151
190214841,4712,2856,15520,43,297,2
190216595,1828,464,17124,14,163,158
190218321,1376,-708,16340,229,98,-154
190220076,2380,2284,17620,388,7,-730
190221799,2508,2808,16328,22,11,85
190223591,3136,2452,17100,352,271,-396
190225293,4120,3296,16340,264,128,-341
190226988,3264,2492,16672,188,204,-41
190228683,2464,3812,16552,254,118,18
190230376,2340,3028,15556,145,174,271
190232068,2024,1592,16076,263,215,-40
190233819,3416,2324,16820,303,108,-86
190235527,4476,2988,15376,155,-165,86
190237239,4624,2804,14696,87,146,206
190238946,3604,1076,15568,38,339,136
190240663,2356,1328,17072,88,67,-188
190242410,2640,2104,15960,51,80,-299
190244182,2768,3320,15812,-83,271,-106
190245894,1812,984,17116,23,198,-76
190247564,3140,2036,17084,22,29,-417
190249237,3428,2212,17092,-72,-16,-250
190250909,2500,3024,16468,2,104,-192
190252579,1988,2212,16296,48,-9,-62
190254248,2248,2244,16720,136,-60,-267
190255941,4752,4168,16144,-55,88,-81
190257663,4332,1796,14656,-10,151,271
190259383,3532,964,15572,150,241,87
190261094,4116,-364,15504,229,82,-194
190262802,4564,856,15048,175,236,-352
190264541,4516,1784,14556,269,522,-294
190266275,3188,1536,16752,68,433,45
190267996,3088,864,16036,49,417,-360
190269745,4524,3096,15824,4,369,-399
190271543,2872,928,16724,-47,248,-94
190273365,3388,320,15628,90,478,-360
190275180,1976,-32,17200,211,98,-464
190276934,1064,2172,18292,217,-278,-660
190278638,2752,3512,16332,169,49,-346
190280420,2880,3316,16956,85,116,-285
190282195,3648,1268,16208,219,109,-245
190283954,4040,4140,16948,376,-244,-725
190285760,3664,3508,14552,-49,78,211
190287451,3536,1944,13556,91,480,-40
190289143,4024,2992,16904,180,617,-410
190290906,3780,1020,15788,-69,532,104
190292694,4308,2476,16100,342,737,-451
190294463,3384,3528,17344,176,601,-24
190296202,192,520,16448,49,520,257
190297948,1216,2644,17032,397,368,-569
190299658,2928,4236,17624,57,-62,293
190301432,3112,3252,16912,-100,47,399
190303228,1464,1064,18424,-49,123,200
190304972,1732,640,17960,210,76,-27
190306744,1936,1236,15628,100,-397,-14
190308433,1836,1492,16380,114,-100,-194
190310124,2080,2276,16484,-6,136,136
190311809,3156,1504,16036,163,-209,-151
190313559,4968,2476,15656,114,-262,-371
190315376,3944,3632,15276,-333,267,214
190317279,1696,1580,15836,68,703,-284
190319054,1272,2416,17572,-87,2,-169
190320756,1144,2032,16736,116,247,-376
190322419,1520,3436,17564,153,64,-375
190324086,1872,2104,17208,65,-70,172
190325754,2060,4468,19264,-13,10,-316
190327467,2136,4256,17980,-328,-530,207
190329161,692,1620,17052,48,-79,38
190330867,2376,2784,16544,-143,-201,-16
190332565,1400,1712,17424,-375,-227,155
190334265,2768,1168,15916,-119,-64,-446
190335966,4688,2824,15796,-100,-449,-178
190338478,3616,3100,17772,-344,141,-232
190340214,4500,3384,14400,-514,179,296
190341948,2144,1148,16196,-190,-86,-68
190343715,3060,2604,15492,-337,-16,85
190345509,2548,1460,16256,-353,143,210
190347270,3124,2060,16228,-9,-296,-207
190348990,4200,2232,16016,-108,-182,152
190350677,4016,1864,15928,-150,-60,115
190352339,3772,1908,15940,-201,146,61
190353993,2888,1836,16512,-197,-216,-86
190355654,3656,2192,15840,-193,-96,-163
190357316,4192,932,15548,-333,286,80
190359018,2852,468,17108,-184,-9,-239
190360746,3268,548,17076,-180,-56,-396
190362482,3936,748,15832,-201,-75,-471
190364203,3220,1044,15964,-120,226,-375
190365919,2584,1556,16784,-8,8,-587
190367633,2744,2220,17128,-112,-178,-542
190369374,4136,3416,14636,-89,-32,-604
190371086,4360,4388,16436,-63,109,-459
190372798,3276,1344,16452,-210,84,-68
190374505,2568,820,16436,-113,-13,-500
190376214,3608,3108,15812,-60,54,-638
190377923,3284,3964,15544,-178,329,-101
190379700,3716,3564,15368,-253,332,-39
190381412,4044,2620,17680,-365,540,-8
190383117,3040,1040,15816,-305,286,29
190384814,1264,1948,17128,96,372,-406
190386509,1364,3148,17784,-62,272,-192
190388205,1648,788,17244,-404,95,301
190390009,2748,188,16004,-27,-26,-248
190391745,3044,1268,17780,72,-12,-459
190393467,4212,2324,16380,-194,32,220
190395182,1560,332,15988,-97,-33,-25
190396892,2180,2040,16520,-73,-255,-224
190398653,2684,2444,16112,-85,-67,-141
190400449,4272,2748,14272,-71,201,118
190402137,3996,1072,17448,-210,5,2
190403787,4716,664,15508,-277,-47,-76
190405436,2332,808,15480,22,215,-292
190407083,2260,2636,16284,81,399,-395
190408730,2192,2636,16880,-113,273,-159
190410390,876,1020,17504,-129,154,-52
190412123,2416,2036,17228,333,84,-558
190413871,5316,5020,15700,-114,144,-58
190415623,2944,4284,17460,-412,349,350
190417342,1596,1336,16676,-109,57,-62
190419062,1448,2724,17516,-74,-333,-58
190420878,1776,1864,15532,-125,111,-2
190422573,2316,2432,16368,-110,228,-132
190424238,2508,1784,17340,-220,-364,273
190425909,3868,2436,16272,-64,-2,-264
190427581,3496,4204,15804,-238,-133,-78
190429247,2852,2304,16908,-328,369,403
190430963,2528,356,15976,-361,1,169
190432663,1940,-92,16316,-238,59,-112
190434373,2708,2956,16440,-57,133,-356
190436094,3392,2376,16516,-211,-59,107
190437808,3876,1580,16184,-259,43,56
190439521,2768,1688,18052,-274,32,-197
190441265,2292,2028,16324,-179,-18,-83
190443012,2636,2968,17048,-173,-292,-155
190444755,3140,2228,16368,-375,-256,111
190446487,2976,284,16128,-156,-60,-215
190448193,4268,1768,14976,-62,-40,-345
190449891,5052,1928,15936,-124,1,-367
190451598,5548,2276,14504,-334,206,-195
190453378,4160,1404,15864,-142,431,-392
190455066,4088,2768,15472,-301,499,-214
190456755,3124,2476,16340,-390,515,-278
190458441,3164,2452,15936,-213,533,-328
190460124,3068,2356,16548,-207,185,-222
190461825,3700,1460,15720,-242,288,-109
190463576,2700,1968,17168,-179,399,-465
190465288,2160,2436,16268,-164,83,-110
190467022,2240,3012,17356,-122,-129,-200
190468744,3184,3220,16060,-283,-2,25
190470467,3176,2212,17368,-380,111,-58
190472178,3924,1236,15648,-210,71,-53
190473966,4296,1672,16176,-49,92,-250
190475668,4676,2144,15164,-195,304,-33
190477364,2824,704,16084,-273,326,37
190479059,3064,1568,16412,-42,434,-286
190480754,3308,2576,16608,-97,210,-270
190482446,4164,2832,16464,-133,539,69
190484141,3504,1824,16736,-158,302,182
190485834,1704,1140,17476,-246,-18,252
190487526,2072,400,16152,55,196,-447
190489220,4468,3828,15916,38,339,-95
190490925,3980,2900,17280,-175,361,399
190492622,3560,312,15912,-296,145,47
190494386,3220,1532,17304,100,320,-384
190496071,2736,1752,15856,-137,313,152
190497742,2048,988,16156,-141,428,-17
190499470,3136,2012,15968,-156,301,-294
190501212,2584,1848,16560,-19,306,-124
190502905,3904,2080,14964,31,355,-246
190504582,2864,3660,18124,-254,469,-145
190506251,1632,1868,16164,-281,380,95
190507915,932,1620,16948,-22,219,-312
190510402,2240,1948,17132,-106,235,174
190512148,1956,984,17160,-52,48,-35
190513853,1984,1728,16308,48,111,-136
190515539,2952,3500,16472,28,-162,-71
190517229,3116,2752,16724,-314,241,387
190518927,2972,1236,16136,-335,256,316
190520631,2072,552,16788,-97,229,-193
190522330,1768,916,16452,-95,96,-150
190524062,2448,1880,16536,-46,360,-358
190525763,2144,2396,18288,-226,45,-152
190527442,2136,852,15744,-134,108,-188
190529114,3664,3544,16436,22,194,-415
190530781,3376,3552,17220,-144,127,37
190532453,2144,1100,16480,-192,33,59
190534125,2120,1784,16588,70,112,-376
190535848,1840,2492,17676,152,55,-263
190537549,3164,3016,16004,77,-45,39
190539261,3628,2268,16340,-115,-150,218
190540978,3876,1520,15636,-117,97,237
190542691,3692,1352,15384,55,55,-45
190544460,3064,1244,16712,-52,104,11
190546312,2788,708,16360,-179,215,-103
190548054,2680,1080,15808,-82,209,-323
190549753,2688,1816,16304,-19,154,-331
190551420,2780,2052,17516,-198,136,-300
190553085,3252,1752,16836,-284,62,-229
190554747,2396,1588,16844,-119,-13,-302
190556460,2456,1912,16464,16,1,-289
190558144,1996,3036,17412,31,-59,-358
190559840,2792,3388,16512,-80,-147,-88
190561534,3332,2772,16816,-1,5,-260
190563227,3516,3112,15884,69,215,-8
190564921,2560,2108,16980,167,99,79
190566671,3608,2592,16404,84,-84,-30
190568378,3760,484,14528,-33,211,217
190570089,2936,348,15524,193,428,-19
190571798,3744,1884,16420,257,252,-84
190573506,3628,1820,15968,-40,-50,9
190575217,4864,2840,15888,-98,330,-47
190576949,4668,2232,15568,-130,531,175
190578657,2496,-376,17020,-6,244,-16
190580368,1920,436,17484,26,-101,-400
190582076,1992,960,17168,-12,-113,-289
190583781,3092,2676,15348,160,122,-229
190585490,3160,2056,17144,197,90,-20
190587273,4092,2180,17704,90,1,-103
190589054,3732,1920,17312,35,-111,51
190590856,2472,1192,14988,405,164,-179
190592628,3296,3028,16876,371,193,32
190594338,3060,1076,15612,100,46,389
190596154,4300,1868,15088,461,164,-355
190598075,5320,2896,15356,391,269,-78
190599840,3912,1056,15068,149,492,324
190601609,2100,1408,16900,318,359,-367
190603337,2736,3044,15328,22,103,-24
190604998,2616,2208,15300,66,293,27
190606652,2780,2404,18232,278,480,-292
190608373,2996,1000,17516,-114,2,121
190610056,1424,332,17524,-49,-219,-136
190611759,764,2576,17464,299,117,-513
190613488,1072,3784,17552,93,-107,14
190615217,1780,2120,16420,-80,-358,69
190616910,2612,1452,16080,76,-193,-55
190618671,3960,2556,16360,395,71,-160
190620349,3476,2740,15852,95,-177,391
190622033,2636,1364,15288,91,-28,339
190623714,3076,1496,15276,287,230,-271
190625385,3308,2192,15200,256,311,182
190627057,2756,1416,15604,293,367,142
190628784,3444,2592,17060,109,-27,-21
190630474,3592,-220,15796,102,371,108
190632175,2280,224,16936,223,250,-328
190633867,1476,2208,17480,171,52,-283
190635555,996,2180,17368,-13,-267,-280
190637250,1924,2088,15840,40,-163,-252
190639001,1700,2232,17264,73,-290,-309
190640716,2872,2920,17416,113,-222,-414
190642481,3988,2612,16980,-9,56,-67
190644241,3328,1656,14672,126,-132,-132
190645980,2612,2256,15968,262,20,-328
190647695,3740,3756,15352,257,133,-49
190649489,3612,2716,16028,85,170,363
190651171,3564,1620,15396,101,156,269
190652833,4708,1596,15100,307,327,-172
190654496,4248,3224,16632,270,334,249
190656158,3612,2464,16188,117,251,437
190657819,2276,1392,16288,20,42,159
190659522,1664,1612,17740,198,60,-137
190661215,3152,2116,16436,216,-38,-63
190662925,3484,3052,17448,-14,-203,88
190664633,4000,2108,16632,-176,68,218
190666353,3792,484,15812,82,-83,55
190668076,3532,860,16396,156,-117,-160
190669818,3752,1676,15764,-15,73,-21
190671528,3884,1436,15296,139,387,77
190673235,3660,1048,16184,251,226,-18
190674945,4380,2392,16080,244,222,-148
190676652,5396,2632,14460,28,552,67
190678358,4192,872,15436,155,627,87
190680079,3832,-48,15632,268,631,-4
190682614,3368,1436,16160,352,550,-540
190684332,2420,3036,16308,279,441,-145
190686041,2076,2676,16772,203,313,-3
190687750,2264,1120,17912,188,362,-296
190689460,2824,2496,17388,221,134,-346
190691177,2048,3156,17300,127,-68,-144
190692879,1840,736,16216,250,268,-175
190694571,3252,2884,16920,177,253,-347
190696263,3024,2940,17060,76,134,-148
190697954,3984,2464,15308,173,250,-219
190699646,4140,2776,16312,90,456,76
190701343,2368,1704,16548,-3,301,246
190703093,1652,1720,15960,258,346,-414
190704795,3024,3340,15376,188,373,-127
190706448,2500,2604,16424,183,488,198
190708101,2740,1940,16600,178,375,153
190709755,2424,1932,17324,167,172,-102
190711466,1632,2724,17372,232,248,34
190713170,1292,2300,16816,246,254,200
190714896,716,1212,18008,181,92,-17
190716606,1500,1064,17576,172,-68,-31
190718308,1820,972,17336,259,-8,-125
190720042,3072,2524,16696,231,32,-135
190721816,2508,2592,16984,-6,-88,-94
190723496,2708,2156,15720,3,48,-151
190725160,2260,1992,16156,45,41,-143
190726810,2724,1548,15684,34,76,-228
190728461,2976,1888,15600,4,72,-387
190730112,3116,2092,15940,8,174,-375
190731802,3352,2816,16088,132,121,-345
190733495,3112,3084,16140,125,184,-204
190735205,2596,2728,16964,73,195,-160
190736911,2004,2544,17376,51,130,-139
190738642,1776,2444,16488,252,-1,-289
190740359,2340,3868,17044,318,-31,-389
190742138,2968,3692,17416,-112,-14,492
190743901,2268,764,16252,-7,-135,115
190745654,3208,3012,16304,144,-190,-189
190747396,3464,3744,15904,98,-98,44
190749112,3616,3000,16360,-111,80,450
190750811,3940,2068,15760,-240,-159,292
190752594,4056,2596,16012,-78,-14,-20
190754283,4744,3084,15140,-103,133,185
190755965,3688,1028,16120,-294,151,391
190757672,2948,872,16020,-175,-6,-162
190759352,3164,1832,15712,-95,-24,-240
190761033,3188,2948,16600,-94,47,52
190762766,2628,824,16752,-328,49,202
190764467,2436,612,16492,-230,-69,-191
190766178,4524,2548,16352,-70,77,-418
190767887,4132,2520,17088,-241,107,176
190769593,2016,-248,16564,-218,103,-14
190771301,1280,-440,17392,-61,-58,-486
190773034,3288,2492,15636,93,132,-605
190774742,3408,3052,15512,-11,123,-83
190776451,3172,2404,16300,-20,185,-9
190778159,4064,1756,15664,-161,225,-135
190779869,4432,2428,14996,66,279,-311
190781577,3932,3108,16420,-155,195,138
190783309,3384,1844,15432,-258,387,290
190785019,1464,380,16020,-23,432,-229
190786729,1712,2800,17500,49,50,-293
190788438,2524,2852,16616,-108,9,-28
190790153,2104,1800,17080,-206,222,50
190791928,1808,996,17764,-44,122,-130
190793826,2608,2208,16620,-43,-221,-223
190795530,2368,1996,17156,-98,-34,-137
190797370,2396,1896,16260,-83,207,-177
190799053,1468,2316,17540,-91,-14,-237
190800727,2892,3776,16076,-49,-221,-217
190802398,3312,4016,16164,-89,8,28
190804115,3376,2124,15184,-256,7,321
190805829,2232,1428,16288,-116,5,-178
190807542,2856,2328,15816,-142,-42,-324
190809252,3664,2392,15620,-174,89,-74
190810972,3720,1728,15748,-146,371,-112
190812690,2604,984,16764,-213,288,-112
190814443,1972,996,17580,-159,90,-293
190816182,1984,1848,16992,-73,63,-209
190817883,1624,1132,16580,-169,31,-49
190819578,2104,1788,17836,-84,-199,-401
190821272,3040,2988,17076,-66,-372,-429
190822969,4136,2656,16640,-177,-47,-11
190824748,3012,1080,16556,-177,48,-29
190826434,1692,1340,17168,-157,-97,-187
190828099,2520,3332,16200,-66,-305,-422
190829762,3396,3640,16212,-127,19,176
190831425,3548,2924,15700,-247,-6,337
190833086,3948,912,15680,-113,27,-10
190834791,5092,3060,15788,-54,31,-212
190836486,4776,3164,15204,-182,111,221
190838206,2584,1124,15828,-15,337,101
190839995,2420,2936,16664,-119,184,-130
190841828,2796,2536,16808,-191,-36,111
190843554,3232,2592,16072,-127,102,105
190845338,4084,1160,15988,-180,142,189
190847081,3160,1136,16696,-188,120,-135
190848835,2088,3152,17624,-212,-53,-163
190850661,2160,1840,16772,-347,35,57
190852451,1872,1560,17164,-367,-194,-155
190854963,2804,2292,17244,-142,-52,-327
190856667,4496,2496,15328,-339,-290,69
190858336,4608,1108,14384,-315,11,131
190859992,3896,2320,14944,-138,239,-411
190861679,2824,2764,16896,-236,218,-18
190863340,3472,2988,15832,-262,217,-79
190864997,4400,2064,15120,-346,327,108
190866653,3460,1324,15492,-255,575,32
190868360,3312,2192,16148,-64,524,-143
190870082,1764,2128,17748,-202,-51,86
190871793,1944,720,16376,-176,323,-19
190873504,1688,892,17192,-63,221,-137
190875213,1744,2404,18152,-18,88,-9
190876948,3200,2452,16480,-312,-112,150
190878661,3700,1668,16532,-356,12,152
190880369,3904,1540,17052,-162,131,-183
190882076,3172,1924,16072,-117,209,46
190883784,3096,1784,16352,-270,88,-13
190885491,2972,1196,16420,-329,69,17
190887220,3008,1004,14568,-169,91,-228
190888933,4480,3340,15452,-59,323,-204
190890653,4892,3272,16044,-188,405,47
190892372,3700,992,16060,-341,71,184
190894170,2412,884,15244,21,151,-227
190895947,2360,2644,17100,170,451,-304
190897757,3212,2740,16676,-236,292,132
190899442,2972,1292,15960,-230,274,222
190901108,3044,2504,18032,160,349,-595
190902770,3260,3312,16312,-226,310,458
190904431,1360,1408,16664,-231,315,339
190906130,1672,1992,17276,-157,72,-413
190907884,2524,2324,16132,-173,124,-49
190909580,3204,2504,15492,-71,86,-153
190911288,3588,2960,17632,-212,276,-46
190912984,3684,1404,15372,-383,100,159
190914693,2404,844,15532,-239,172,38
190916412,2476,1572,15492,42,299,-335
190918190,2600,3376,17268,-212,282,145
190919880,1896,632,16408,-155,155,234
190921566,2828,548,15728,44,110,-149
190923246,4848,3084,16456,-21,439,-170
190924964,2304,2228,17168,-331,414,253
190926677,1572,1644,16384,-151,338,120
190928442,1152,1804,16936,-60,-32,-6
190930113,1228,1608,16980,-73,152,22
190931774,1792,1648,17624,31,194,61
190933433,2600,1424,17316,17,-134,19
190935090,3516,2968,17604,-73,-12,-86
190936748,2704,3676,17060,-214,-210,194
190938448,2384,2176,16220,-83,301,273
190940146,2648,1012,16372,-179,101,165
190941881,2076,848,16456,-151,66,-206
190943603,2868,2084,16084,5,81,-300
190945340,3880,3120,15860,-94,23,255
190947151,4224,1104,16228,-280,353,117
190948933,2980,976,14940,-204,189,-119
190950642,2316,2132,15580,-8,248,-293
190952319,2972,3096,15992,-127,126,136
190953978,2184,1736,17052,-329,114,92
190955629,2488,1428,15720,-253,273,31
190957279,2852,2408,17452,100,76,-428
190958977,3648,3520,17036,-327,27,289
190960669,2840,2200,16288,-416,126,238
190962379,2984,1728,16176,-203,212,-42
190964089,2352,2408,16800,-206,-173,51
190965802,3192,2084,15064,-244,25,94
190967521,3152,2284,16524,-290,169,-57
190969254,4092,2260,16108,-194,111,14
190970967,4908,1584,15780,-200,70,60
190972677,4940,836,15396,-303,182,289
190974386,3268,-308,15444,-127,294,-166
190976102,3348,2280,16480,63,355,-400
190977810,3732,2860,16104,-27,347,-46
190979543,3076,1948,16904,-112,392,109
190981300,3252,2292,16796,-139,318,-25
190983124,3412,1472,16676,-53,269,14
190984981,3104,1684,17452,24,350,-29
190986764,2812,1300,17304,-57,178,72
190988487,2132,1648,15100,-184,-2,69
190990265,3536,1676,16012,175,266,-305
190992112,4136,2608,16252,-89,173,139
190993946,2668,516,16760,11,421,-68
190995735,3504,1200,16388,135,376,-354
190997455,2844,2864,16304,74,319,-3
190999133,3240,1680,14828,25,636,49
191000823,3148,2004,16368,73,776,-133
191002508,2776,2232,16920,-56,585,182
191004186,2140,776,15248,116,345,-129
191005865,1828,1452,16324,253,473,-251
191007541,1384,3060,17788,83,333,115
191009218,788,1312,16832,-30,52,201
191010918,1616,1280,18248,243,-102,-138
191012636,2952,2188,17212,257,-23,-86
191014404,2436,2668,17596,47,-100,341
191016186,1640,1168,16980,73,42,122
191017935,2508,1896,16336,232,45,-36
191019696,2704,2008,16244,234,121,134
191021456,3128,1704,15428,128,208,191
191023159,2460,1032,15712,84,333,270
191024834,2200,432,16284,219,331,167
191027187,3168,2260,15924,172,256,225
191028943,1976,1484,16572,211,303,33
191030626,1724,1224,17880,195,182,39
191032309,1200,376,17564,284,-27,-83
191034045,2572,2616,17016,273,-74,-312
191035758,1988,3532,17716,151,-146,-105
191037436,1788,1924,17136,39,-12,107
191039111,2376,1444,17620,296,-165,-199
191040799,2896,2432,17564,267,-351,-263
191042492,3256,2416,15268,66,-166,89
191044189,2752,1664,15924,284,80,-91
191045883,3160,1884,15752,279,-16,-178
191048077,3896,3080,15108,139,-129,-180
191049826,4244,3748,14064,111,202,5
191051560,3268,2424,16332,76,138,241
191053282,2944,912,16676,75,-25,-93
191054957,3180,1844,16316,78,-40,-359
191056612,3672,3436,15016,113,164,-47
191058263,2668,2024,17204,59,96,32
191059914,3340,1732,16320,-11,32,-34
191061564,2676,1612,17204,-34,-32,-212
191063250,2756,2880,16324,98,175,-74
191064941,2700,2444,17084,73,103,62
191066652,2280,1604,17572,-5,-63,36
191068370,2872,2220,16664,92,-90,-86
191070091,5588,3152,14268,32,231,-31
191071801,4264,2552,17060,-25,359,177
191073539,4016,384,15264,77,294,23
191075246,3136,1116,16180,78,-272,-286
191076959,4032,2060,13920,119,-23,-187
191078671,3716,1648,15396,149,465,54
191080381,3192,-500,16440,206,263,35
191082087,3476,1780,17156,259,-174,-546
191083818,4800,3264,14828,171,-46,-332
191085529,4612,3048,16284,196,713,9
191087238,3120,1240,17392,-24,434,197
191088947,1964,-48,17540,2,129,10
191090665,2028,1560,16188,319,143,-522
191092408,2632,2984,16188,334,232,-113
191094314,2408,2040,17372,135,20,131
191096077,3664,1700,16264,127,-61,-54
191097758,4396,1704,15016,210,89,-57
191099429,3948,2336,15760,321,230,-164
191101103,2864,1588,16484,112,355,25
191102788,3336,804,15692,88,472,-119
191104526,3000,2556,15300,235,394,-390
191106228,3152,2548,16552,283,576,-108
191107938,3304,2656,16456,191,527,-109
191109647,1744,2160,17332,21,494,142
191111359,1104,1716,16912,230,231,-191
191113067,1804,2876,16228,160,188,-7
191114910,1720,2428,16676,144,397,56
191116665,2816,2256,17524,206,297,15
191118403,2212,1212,17048,163,-159,69
191120120,1868,1480,17108,402,222,-98
191121834,1240,2216,17652,395,107,-14
191123546,1572,1832,16756,187,64,117
191125258,2416,1892,16508,190,49,49
191126926,2860,1892,16192,218,54,81
191128584,4772,1548,15664,311,262,-68
191130247,3592,2204,15884,33,203,93
191131904,2472,1044,15728,78,267,132
191133555,1780,1884,16668,287,108,-495
191135253,2196,2848,16004,65,99,-82
191136926,1948,2396,16388,43,205,-67
191138614,2220,1220,16696,61,5,-180
191140300,3988,2068,16436,273,147,-722
191141982,3180,4156,17500,165,18,-519
191143678,2128,3356,17028,42,145,95
191145400,1744,2044,15660,63,15,-73
191147092,1936,1712,16296,167,171,-296
191148776,3328,4048,16892,234,8,-232
191150514,3588,3024,16276,-55,67,359
191152256,4096,1320,15764,65,234,54
191153972,3128,1612,17116,76,175,-143
191155750,3336,2124,15380,9,8,83
191157415,2248,2564,16416,-10,-78,-51
191159079,2872,2692,15688,-128,-71,59
191160738,2996,1464,16212,-41,-75,-8
191162395,4320,1976,16116,-68,-101,11
191164051,4364,1476,15776,-103,-33,92
191165745,3712,1664,16276,-124,-91,-224
191167437,3064,1532,15768,-120,30,-131
191169148,3380,3460,16440,10,216,-467
191170856,3768,4240,16816,-206,146,-238
191172565,2868,1752,16276,-270,231,52
191174271,2880,1604,16940,-17,69,-309
191176050,3804,1888,16324,17,23,-262
191177763,3136,1672,16444,-123,8,8
191179471,2448,888,16192,5,343,-56
191181180,2888,1552,15556,128,-37,-286
191182890,4328,1816,15440,180,107,-290
191184598,5104,3756,16136,-31,189,-204
191186332,3720,708,15588,-94,719,219
191188067,2424,156,17296,98,494,-215
191189787,2372,2036,16764,76,141,-336
191191505,2816,2768,15160,50,275,-247
191193313,2176,3188,17412,-129,331,247
191195092,2372,2212,16468,-178,85,147
191196809,2500,2996,17432,-95,15,-168
191199366,1580,2248,17192,-63,58,263
191201079,1028,1668,17240,-120,-30,131
191202755,2144,2000,17048,-47,23,-280
191204427,4148,2872,15848,15,211,199
191206095,3332,1880,17332,28,125,202
191207765,3840,2200,16184,-198,82,88
191209449,1192,864,16316,-154,115,74
191211154,952,1248,15800,5,69,-234
191212855,2332,2692,16376,-115,-29,-177
191214555,2288,1864,16236,-244,158,-24
191216277,3100,1696,17760,-104,170,-320
191218034,2972,2312,17404,-135,-148,-276
191219758,1980,1824,16748,-159,-54,-44
191221473,808,1192,16700,-14,136,-261
191223189,1340,1840,17584,29,45,-400
191224893,2196,2708,16752,-137,-274,75
191226594,2504,1436,16692,142,0,-165
191228294,4648,4072,17184,-46,109,38
191230001,2656,3480,17428,-295,-109,451
191231717,1904,2216,15308,28,-77,-60
191233430,2364,2728,16304,-107,-137,211
191235139,2584,1280,15416,-250,-82,399
191236852,2636,4,16588,-71,-38,-226
191238597,4128,1956,15816,-74,-331,-247
191240335,4296,3188,16336,-151,77,-236
191242064,3848,3572,16268,-272,51,-72
191244139,2320,2052,16724,-409,77,43
191246014,2496,2152,16084,-202,-158,-352
191247884,2416,2476,16668,-271,-209,-100
191250118,2336,1932,16532,-268,-91,-132
191251948,4684,1668,15220,-123,49,-266
191253709,3496,3044,16248,-211,-299,-169
191255389,2248,2092,16568,-141,230,100
191257045,2056,2120,17288,-170,68,-104
191258691,2248,1944,16932,-257,-102,10
191260340,3376,2504,16136,-64,29,-225
191262013,3880,2808,16688,-183,-63,-15
191263693,3848,352,16284,-328,150,169
191265373,3888,1212,15336,-211,-108,-428
191267053,3896,1772,15284,-177,74,-327
191268742,3340,2888,15436,-184,293,-193
191270510,2816,2416,16676,-428,295,-39
191272215,2248,1504,17124,-483,90,-58
191273928,3604,1860,16488,-115,212,-501
191275636,4656,2932,15828,-193,258,-23
191277344,1908,1048,16988,-291,54,101
191279053,1724,696,16664,-222,-4,-138
191280785,1788,1484,16628,54,55,-301
191282494,3128,3816,15328,21,2,-92
191284205,3272,3860,15884,-106,110,120
191285916,4560,2976,16920,-270,145,211
191287624,4208,904,15388,-128,74,355
191289334,3164,800,15860,3,301,-68
191291053,2808,1196,15964,-99,315,-15
191292845,2700,1468,16796,-83,416,-67
191294614,3148,1960,15076,-158,190,18
191296333,3336,2020,15652,-115,346,-167
191298051,3676,3664,16884,-203,539,-38
191299767,1468,712,17276,-323,47,449
191301571,612,232,17512,-57,-112,-450
191303277,1552,1936,16780,-61,-192,-551
191304973,3104,2796,16928,-4,322,72
191306666,3528,1172,17012,-134,56,32
191308359,3392,900,17444,-189,-39,-163
191310052,2588,1876,16240,-41,-18,-155
191311811,2240,2628,15348,113,364,-140
191313516,3040,2952,16796,-228,17,73
191315235,2804,2096,15880,-269,46,166
191316964,4188,1864,15308,59,160,-294
191318689,4808,3308,16068,-168,246,-120
191320410,2360,1884,16360,-350,182,155
191322213,2288,888,15576,-148,245,-121
191323906,2844,2404,16224,-74,91,-309
191325589,2256,1268,16476,-185,451,158
191327335,1956,704,17588,-109,350,-117
191329137,2596,2032,17944,-33,-105,-155
191330910,4284,2736,14580,-145,137,-107
191332712,2432,3844,17412,-299,240,113
191334443,1360,1016,17116,-264,-96,263
191336262,1220,356,17444,-160,-294,-55
191338044,2744,720,15184,-16,-42,-225
191339775,3700,2988,15836,-16,120,-103
191341491,4472,2396,16568,-48,-44,16
191343272,5012,2640,16588,-133,-74,-47
191344956,4356,1528,13988,-323,356,251
191346637,3456,1864,16532,-19,614,-349
191348313,2692,2832,17076,-160,334,-181
191349986,1964,1432,15860,-273,108,-84
191351666,2504,2276,15704,-55,314,-238
191353454,2784,2000,16988,-248,156,-46
191355158,2960,1272,16484,-287,113,-157
191356845,2780,2016,16912,-235,98,-364
191358510,2200,2400,16716,-227,134,-226
191360167,1916,2656,17540,-293,26,-320
191361829,2456,2308,16420,-287,365,-210
191363538,2508,2316,17032,-248,64,-186
191365221,2432,1984,16608,-274,-16,-124
191366944,2832,2516,16516,-254,124,-202
191368660,2972,2272,16112,-97,289,-73
191370362,2208,2468,17384,-64,20,-87
191372840,2688,2696,15800,-374,133,52
191374582,3544,2572,15752,-214,173,153
191376282,3256,1604,16096,-129,97,233
191377977,3672,720,14980,-195,-47,111
191379670,3624,700,15884,-98,401,-216
191381366,4048,1796,15968,-48,493,-170
191383062,2984,1792,16500,-153,465,215
191384828,2396,1732,17044,-204,381,-120
191386538,2264,2444,17852,-292,322,50
191388262,2624,1640,16284,-347,198,203
191389982,2144,252,17500,-46,342,-292
191391695,2672,2148,16976,-127,6,-85
191393421,1744,1464,17012,-212,-118,72
191395320,2136,1232,15992,-45,-58,-251
191397050,3580,2316,16516,8,98,-319
191398721,4872,2068,15860,-117,-63,-30
191400394,4700,1560,15640,-89,48,-71
191402058,4936,2100,15560,-36,302,-273
191403720,4052,1740,15140,64,451,-145
191405433,3676,1944,15276,97,483,-265
191407129,3760,3524,15456,-154,525,-126
191408847,3268,1636,15468,-205,631,167
191410559,3316,1608,15952,48,581,-82
191412280,3104,1576,16384,-20,508,-4
191414013,1264,1764,17896,-87,307,-73
191415756,1372,2404,17400,-31,310,-74
191417494,1332,2540,17480,6,147,-105
191419230,2204,3084,18288,-67,144,-39
191420949,2908,2472,17572,-335,88,271
191422660,2412,1376,16996,-175,18,21
191424368,2392,1356,16776,-23,-82,-10
191426155,1836,1560,17016,-73,-136,117
191427856,3076,244,15504,-52,155,180
191429556,3056,320,16000,133,24,-113
191431253,3768,632,15284,274,84,-186
191432948,4676,2228,15324,252,285,-211
191434638,3156,2680,16732,-39,317,116
191436332,2424,1788,15684,-81,252,178
191438033,1576,792,15928,205,441,-321
191439743,2136,2604,17416,161,266,-183
191441477,1744,2176,17384,-7,138,61
191443259,2216,980,16744,47,96,-311
191445005,2616,2944,17556,170,302,-495
191446721,1812,4380,17744,-62,40,-87
191448400,960,3364,17508,-220,-96,211
191450058,276,652,17864,-25,-21,-186
191451714,1432,2092,17212,143,-215,-254
191453371,1536,2196,16956,141,-328,-111
191455050,3124,2484,16256,81,-264,-13
191456788,3868,2072,15736,10,-77,92
191458454,3484,1944,15624,54,-145,67
191460122,4004,2424,14472,216,75,14
191461782,3560,2172,16168,10,196,257
191463492,2916,1480,15716,-70,216,263
191465170,2828,364,15176,185,319,-160
191466895,3208,2572,16732,305,212,-196
191468607,2740,2456,17256,-75,100,327
191470337,2536,1164,16052,-122,68,263
191472077,1876,1484,17320,140,92,-242
191473786,1020,3188,17856,92,-185,-22
191475491,2092,2816,16616,18,-93,49
191477228,2512,2404,16752,-139,-283,4
191478939,2020,1728,18460,172,-207,-117
191480648,4340,2148,16164,216,-232,32
191482354,3724,1992,16652,52,-341,125
191484092,3524,1084,15556,82,25,31
191485802,3776,1028,15132,291,163,2
191487532,3876,1452,15332,349,15,-64
191489242,4448,3520,15892,136,-33,-45
191490954,4688,2000,14180,-55,351,347
191492665,4420,-784,14136,237,458,-84
191494383,4180,-380,16012,411,489,-453
191496191,3720,2516,16896,160,125,-427
191498056,3192,1628,15344,89,646,51
191499740,2504,1656,18196,315,524,-501
191501409,2624,2864,18540,191,168,-479
191503068,2344,3436,18052,104,189,-85
191504729,1612,2500,16800,110,85,252
191506385,280,1196,18312,52,-104,227
191508089,1464,1228,16708,247,-207,-420
191509780,4216,3324,15780,268,9,22
191511494,4236,2612,16308,164,-31,272
191513203,4396,1052,15100,175,42,-34
191514909,3852,1204,15556,302,307,-162
191516618,3476,1720,15612,322,308,-224
191518421,3876,2464,15136,123,492,-194
191520144,3576,1632,15240,4,560,-131
191521851,2512,1248,16960,305,455,-324
191523546,3136,1972,16724,301,282,-283
191525237,1948,1496,17396,-9,295,96
191526928,348,912,17480,323,373,-327
191528642,288,2396,18148,394,61,-481
191530337,1564,3732,17944,226,-158,77
191532056,3700,2904,17264,94,211,323
191533751,2552,152,17088,103,17,224
191535447,1976,-4,16920,323,-135,-50
191537144,2192,1580,15980,423,-36,-154
191538907,3100,3020,15232,230,134,-24
191540614,2616,2708,15292,60,220,272
191542339,3160,620,14604,280,115,-155
191545306,4972,3676,15556,52,362,96
191547092,2724,1188,14756,60,567,-3
191548818,1068,1564,18152,342,415,-518
191550544,1800,2988,17196,319,278,-557
191552213,976,4140,17480,104,-118,34
191553860,1856,1804,16920,193,17,9
191555533,3928,1768,16968,271,364,-335
191557203,2680,3652,17396,52,-290,133
191558851,1332,3280,17060,129,-209,215
191560500,1864,3108,16856,43,-222,263
191562169,2504,908,16544,4,111,215
191563850,4164,1488,15440,182,267,-64
191565529,3548,1520,16980,185,205,0
191567206,5080,2840,15116,4,260,48
191568884,3668,1400,14464,-30,357,62
191570624,3516,1296,15216,67,480,-104
191572327,2820,1900,16300,-63,339,-16
191574038,1968,828,15528,-70,109,-38
191575747,1536,948,16772,90,61,-295
191577455,2416,1676,16712,150,-59,-188
191579161,3852,2188,16684,94,-159,-277
191580894,3888,3324,17688,-104,-39,-100
191582602,4028,1928,16340,-116,-45,93
191584309,2196,1132,17320,187,64,-234
191586015,3560,2116,16660,191,135,-275
191587788,3112,1372,15528,36,196,94
191589653,2424,360,15732,140,330,-74
191591556,3720,2612,15952,389,147,-630
191593365,4800,4368,15216,15,9,8
191595126,4716,2052,15008,-71,715,159
191596945,2688,1348,16248,52,330,-156
191598732,2212,1164,16656,45,82,-220
191600462,2252,2340,16408,170,18,-488
191602317,3112,2728,16292,-25,387,52
191604125,2692,1028,16788,7,-16,-249
191605840,3560,2832,17512,78,-7,-401
191607523,3716,3180,16912,-3,130,-145
191609174,2020,2068,17080,-142,161,123
191610815,1552,1316,16552,-87,201,-10
191612473,1960,2520,17012,105,54,-449
191614126,2572,2748,16584,5,81,190
191615786,2512,1568,15976,-33,46,188
191617501,2116,1608,16312,12,-106,-220
191619281,1740,2460,16116,49,-103,-222
191620975,3736,3464,15428,0,74,-166
191622660,3996,3168,16136,-231,100,37
191624398,3200,868,16608,-249,208,-236
191626075,3820,2084,16240,18,258,-471
191627756,2912,1988,16920,-76,133,-189
191629437,1244,596,16904,-173,221,-288
191631125,456,1508,17480,-53,127,-521
191632815,356,2272,17376,44,-23,-440
191634566,1504,3548,16816,47,-356,-285
191636286,2700,3140,17488,-227,-30,-175
191638015,2072,1492,16808,-57,-131,-137
191639760,1504,2340,16884,184,-319,-409
191641524,1964,4060,17368,-133,-503,0
191643304,2036,1616,15552,-334,114,253
191645185,2996,2436,16988,46,24,-448
191646898,3472,3788,17136,-111,-357,-185
191648560,4820,1964,14436,-260,88,208
191650241,3384,1912,15392,-213,259,169
191651909,2272,948,15956,-226,266,224
191653569,1596,1864,15772,-107,-95,-500
191655277,2940,3180,16356,-192,157,-53
191656976,2148,1852,17672,-268,10,235
191658686,2480,980,16888,-313,-109,80
191660398,2312,828,17492,-156,-50,-327
191662109,2364,2972,17600,-45,-103,-133
191663817,2244,2380,17388,-143,-159,103
191665554,1568,1836,17544,-214,-245,-25
191667263,2340,2468,17056,-155,-303,-187
191669000,4016,2052,16040,-126,-378,-56
191670740,4480,2112,15276,-222,-327,-56
191672498,3748,916,15772,-322,-86,-69
191674289,3752,2284,15864,-117,-232,-381
191676131,4536,2948,14660,-245,20,-64
191677893,4016,2520,15316,-315,111,-53
191679609,4304,1684,16192,-265,316,-167
191681319,4728,1388,15528,-255,-23,-251
191683109,4016,2440,16816,-188,171,-264
191684895,3832,2100,16280,-244,131,-20
191686671,1640,740,17400,-141,145,-181
191688384,1836,1408,17372,-149,-140,-256
191690068,2572,2184,16472,24,-190,-326
191691752,3108,3000,16484,0,-183,-291
191693427,4044,1896,15688,-249,-88,31
191695095,4080,2160,17188,-150,-23,-408
191696762,4368,3320,16768,-175,-74,-302
191698513,3572,1688,14388,-259,51,210
191700255,3332,1136,16888,-146,456,-406
191701942,3384,1884,17128,-305,350,-244
191703625,3360,1100,14980,-124,174,-316
191705308,4728,4028,15544,-70,333,-397
191707052,2136,1676,16744,-449,433,311
191708736,1252,392,17044,-274,265,-15
191710420,1028,988,16468,34,-62,-516
191712105,3320,2592,16016,12,87,-207
191713787,3112,2160,17208,-58,400,74
191715466,2192,628,17644,-71,-125,-51
191717848,2448,2132,17512,78,-382,-418
191719604,3196,3984,15632,-19,30,-11
191721321,2988,2572,15076,-336,145,285
191723026,3780,1460,16008,-192,-17,-486
191724730,5024,3056,15408,-135,173,-552
191726436,4204,2288,13280,-254,398,214
191728141,1896,1188,17004,-191,462,-266
191729837,2224,1028,16980,-317,267,-242
191731523,1264,360,16400,-90,273,-360
191733204,1808,3436,16836,62,151,-199
191734885,1756,3172,17156,-100,8,66
191736566,3752,2644,16860,-224,-39,-137
191738305,2636,1916,17192,-282,360,61
191740060,840,2704,16596,65,-50,-151
191741785,248,2712,17780,-62,-20,84
191743523,1992,736,15324,-193,70,12
191745325,1232,1212,17800,-52,-25,-74
191747108,3456,1340,15240,44,-343,-55
191748926,5856,2636,15316,37,391,-413
191750608,4248,3196,15484,-450,-199,554
191752271,324,92,17384,11,118,-132
191753938,1404,1472,17612,30,-198,-581
191755603,1440,2784,16808,-309,145,137
191757260,2648,2696,16676,-169,-57,-41
191758969,2636,2152,17292,-257,-436,90
191760663,5568,280,15496,-147,387,-257
191762375,3448,2792,14972,-263,-30,-21
191764117,736,2200,18400,-92,-54,-245
191765828,2112,2776,17268,-252,-317,-238
191767537,1376,1844,16324,-279,-21,-86
191769271,2896,2284,16616,-69,255,-254
191770982,3340,2244,17440,-199,-87,-252
191772690,3940,1276,16704,-361,73,-31
191774399,3284,2460,15488,-118,27,-455
191776107,2560,2696,16760,-241,204,-108
191777814,1964,2800,17140,-363,117,-192
191779546,3044,2244,15856,-347,52,-142
191781254,3912,2184,16232,-187,-220,-299
191782962,5096,2976,15004,-220,2,-240
191784670,4724,1760,16348,-323,251,71
191786419,3732,688,15616,-236,112,-21
191788167,2584,1152,15868,-129,72,-332
191789912,3404,1944,15120,-75,322,-270
191791672,3208,2800,16124,-74,365,-147
191793414,3564,2524,16244,-334,33,134
191795141,4164,2360,16512,-272,185,-43
191796853,5156,1660,14656,-199,311,144
191798579,3156,424,17556,-105,387,-55
191800385,2288,808,16680,-139,342,-159
191802100,1684,1244,17420,-79,161,-286
191803746,3092,3184,15792,-103,356,-137
191805391,4004,2740,16816,-213,474,-97
191807033,3252,2352,18076,-308,245,-21
191808678,3056,920,16488,-104,-31,-117
191810322,3340,2284,14712,-97,198,-162
191812146,3108,1692,16272,-186,397,-90
191813876,3188,1980,15840,-86,443,-118
191815597,4232,1692,16804,-17,324,-186
191817320,4472,1896,15460,-157,448,45
191819053,3284,1752,16176,-96,646,48
191820787,1908,2080,15840,30,364,-68
191822486,1116,2548,17808,-68,21,34
191824165,2440,2768,14852,-169,121,74
191825835,2680,2188,16668,-19,539,161
191827506,3596,1728,16724,-23,202,167
191829179,2760,1520,17928,-91,131,124
191830908,2436,528,14752,-37,361,120
191832609,1488,1872,18564,33,257,-218
191834320,1056,1592,17252,-64,190,146
191836063,1092,1632,17404,23,128,-112
191837775,3488,3392,16296,-50,48,131
191839524,1856,1996,16588,-319,194,299
191841318,1444,1216,16112,-1,240,-117
191843118,1472,1704,16988,64,95,-95
191844890,1684,1468,15748,-122,57,138
191846608,1892,716,16280,-88,224,-129
191848299,2616,1568,17648,120,161,-263
191849991,3600,2100,17112,109,33,-237
191851707,2660,2288,17280,-172,-2,133
191853394,1288,716,16868,-97,289,-126
191855075,620,1072,17320,66,131,-348
191856758,1328,2452,18096,19,-153,-292
191858440,1820,1888,16652,-122,-155,-32
191860121,2472,1284,16360,-59,-45,-149
191861900,3000,1692,16660,125,-62,-344
191863604,2824,3208,16612,103,-240,-126
191865311,2620,2280,16240,-51,-171,129
191867017,2848,1752,15832,-49,-51,118
191868760,3320,1628,14896,120,26,-265
191870497,3852,3232,16420,129,-59,-46
191872214,4380,2488,16204,10,89,238
191873916,4472,1316,14324,-68,28,72
191875618,3500,2008,16096,116,121,-172
191877315,3008,2164,16604,5,127,125
191879011,2832,1596,16416,-83,31,76
191880706,2540,1576,16380,-88,-90,-139
191882458,3304,2264,16144,52,132,-239
191884169,3784,2360,16972,63,74,-219
191885879,3696,1812,17172,-136,-28,-19
191887587,2980,1104,16104,-182,-119,-113
191890598,3124,2268,16448,295,196,-437
191892381,3572,2796,16796,-62,-19,124
191894107,3044,1808,16492,-217,-71,165
191895801,4492,1136,15392,131,301,-288
191897482,4392,2360,15912,237,208,-157
191899164,4096,1684,15836,67,292,176
191900899,2736,-440,16240,159,257,-251
191902641,3248,2848,15880,221,157,-337
191904331,2668,1896,15684,204,305,-12
191906069,3108,1844,16936,204,385,-227
191907730,2756,900,17616,62,-49,46
191909388,2264,1188,15920,217,-183,-367
191911050,2748,1868,15644,317,1,-451
191912711,3036,2872,16956,169,76,-115
191914417,3356,1568,16068,124,75,-115
191916116,3592,2136,16244,186,7,-362
191917828,3844,2432,15640,168,390,63
191919567,2652,2528,16600,313,396,13
191921318,2312,1772,15912,175,246,44
191923046,1992,2004,16564,213,187,-83
191924838,2964,3064,16036,326,513,107
191926543,2996,2236,16796,229,206,105
191928245,2588,2252,17148,67,95,114
191929937,1876,1616,16648,81,112,-46
191931629,2068,2348,16592,227,28,40
191933324,1816,1520,16756,192,25,184
191935089,1612,168,17100,94,-97,-61
191936964,2016,448,17944,257,-131,-276
191938819,2812,1888,15844,253,-198,-214
191940618,3092,2608,16432,132,89,-328
191942434,3168,2444,16452,24,27,-157
191944211,2720,2268,16160,44,-108,-153
191946020,1860,1588,15240,133,-47,-98
191947722,2056,920,16924,344,54,-491
191949384,2816,2584,16748,327,-36,-284
191951027,2936,2980,16236,262,-219,-228
191952669,3592,3684,16376,253,264,-173
191954310,3788,3616,16448,204,268,-31
191955987,2568,1812,16676,112,114,175
191957703,1508,1800,17588,275,25,-256
191959417,1880,2924,15884,111,118,2
191961127,1488,1900,16728,136,113,102
191962833,2516,1620,17412,230,-94,-160
191964541,3596,2356,16188,-64,-227,-104
191966272,3476,2408,15380,-71,-85,-40
191967982,3416,2168,16056,16,63,-162
191969778,2928,1288,15856,-103,-104,-114
191971527,2312,2080,16736,66,-105,-521
191973234,3536,3412,15492,20,-109,-436
191974947,3288,1444,16140,19,1,75
191976688,4080,1580,16244,159,127,-281
191978397,4188,2352,16336,99,107,-264
191980107,3748,2640,15768,69,50,-73
191981819,2712,1740,15796,58,336,38
191983525,3004,1112,15964,159,351,-371
191985233,2876,2240,17232,178,164,-516
191986964,3796,3628,16384,-9,135,-77
191988672,2196,320,16896,-96,209,20
191990387,2472,-584,16444,101,64,-357
191992104,2632,1572,17676,128,-252,-573
191993815,2712,1668,16628,3,75,-227
191995523,3136,1416,15828,85,24,-315
191997312,2876,1672,15956,125,-71,-542
191998988,4624,3680,15884,16,46,-506
192000643,4132,3152,15712,-42,326,-51
192002371,3888,2264,14828,-26,339,-55
192004077,1728,420,17044,106,171,-210
192005739,2604,2516,16528,174,364,-436
192007469,3180,3188,16088,152,313,-131
192009139,3376,2588,16540,132,388,49
192010814,3384,1312,17088,52,476,-21
192012506,1524,1156,15996,350,248,-162
192014188,1700,1988,16368,435,334,-265
192015864,1336,3076,17612,110,82,-6
192017678,1536,824,16708,-42,378,232
192019489,1916,712,18392,419,176,-554
192021248,3508,2480,18452,325,-131,-567
192022983,2452,2320,16084,-115,-105,290
192024740,1008,1816,16280,190,171,-357
192026549,2328,3172,16220,-5,-184,-324
192028370,2572,3168,15768,-84,-223,-160
192030107,4628,3496,15268,61,326,-247
192031787,3996,2160,16220,-168,76,145
192033459,2960,1096,15908,-101,77,8
192035128,2004,1984,15788,179,154,-475
192036796,2680,3448,17204,154,243,-51
192038466,2388,2816,16804,-24,120,250
192040168,1484,780,16864,59,35,-47
192041883,4008,3080,16952,228,161,-394
192043658,2760,3584,16912,-266,6,482
192045467,1660,1052,16460,-247,-19,402
192047234,792,688,17432,-46,-177,-325
192048959,2024,1768,16096,35,-214,-302
192050641,2700,2464,16408,-7,-107,-222
192052298,2808,2656,17032,-154,-128,-118
192053954,4476,1928,16188,-178,44,-275
192055610,3684,3588,15484,-154,-250,-122
192057265,3128,3116,15472,-164,-47,92
192058921,1576,1436,16584,-187,-4,-169
192060618,1552,2388,16872,-230,-238,-196
192063198,2576,2320,15724,-5,-184,-248
192064918,5416,2804,14488,-131,62,-34
192066626,2784,1596,17156,-309,35,-55
192068362,3068,1348,16292,-263,-76,-165
192070088,1460,2140,16508,-43,-16,-395
192071800,2604,3428,16460,-254,113,-113
192073510,2036,2388,17008,-354,138,137
192075211,1764,420,17744,-270,-361,-356
192076904,3880,2728,16816,-156,-290,-505
192078595,3396,2884,16284,-349,-56,32
192080290,2500,2076,16312,-431,-208,53
192081991,1424,776,16932,-384,-335,-260
192083694,2716,2420,15656,-151,-243,-604
192085407,3508,3548,15132,-153,-236,-434
192087124,4420,3172,16960,-319,2,-196
192088834,4976,1156,15732,-316,-49,-164
192090548,4008,1212,15912,-171,-73,-358
192092291,3696,2316,15312,-167,-54,-236
192094021,2936,2308,16544,-262,325,-146
192095738,2680,840,15764,-248,33,-92
192097457,2448,820,16316,-112,-62,-297
192099174,4024,2744,15472,-129,3,-471
192100886,4384,2712,16516,-262,206,-71
192102576,4340,1252,15896,-267,87,54
192104307,3288,-28,16932,-75,231,-468
192106006,3180,1784,15632,-193,161,-239
192107662,2472,2504,16108,-22,59,-339
192109315,2992,2960,16724,-74,73,-222
192111035,3964,1576,16452,-207,126,-78
192112712,3496,1716,15580,-74,-13,-239
192114394,2524,2184,16312,-16,25,-264
192116077,2784,3184,16712,-180,-98,-124
192117755,2956,1948,16012,-179,238,-5
192119468,2940,2060,16352,-58,187,-102
192121249,3816,1904,16040,-153,101,-27
192122983,3516,1756,16052,-183,28,-107
192124699,2136,1496,16804,-1,215,2
192126419,2192,1648,16120,-54,101,-83
192128134,1952,1300,16188,-151,45,-61
192129840,2652,2432,17260,-118,-3,-220
192131607,3696,2280,15884,-125,16,-35
192133364,3340,1616,16692,-158,-48,-131
192135077,2500,2400,16988,-239,191,-126
192136785,1848,1920,16016,-158,-26,-200
192138491,2136,2052,16028,-90,58,-268
192140205,2476,1880,16148,-206,-62,-34
192141924,1932,968,17580,-90,133,-241
192143625,2540,1644,17100,-46,-31,-322
192145371,2928,2864,16208,-59,-101,-338
192147137,3092,3908,16076,-114,119,-89
192148856,1560,2340,17312,-248,36,202
192150564,1848,1656,16956,-298,-203,54
192152351,1916,1152,16276,-128,-156,-227
192154043,3228,3084,16428,-78,11,-167
192155733,2544,1252,16712,-338,-115,194
192157420,2212,928,16808,-300,-240,-143
192159096,3524,2248,15916,-160,-12,-289
192160788,3568,2424,15788,-211,-9,-48
192162534,3016,1876,15744,-299,88,50
192164229,2148,1448,17124,-352,-55,-312
192165933,2704,1960,16480,-136,10,-335
192167632,2796,2672,16860,-100,-122,-308
192169324,2984,2036,15992,-295,88,-15
192171026,2204,1640,17644,-333,-210,-233
192172744,2428,1512,17056,-139,-244,-295
192174439,3128,2228,15832,-80,-315,-462
192176158,3624,3256,16388,-311,59,-33
192177870,2984,1348,16472,-385,-77,-29
192179565,3432,1080,15360,-326,-162,-195
192181257,3980,1316,15892,-178,-61,-414
192183011,4120,2260,15884,-280,296,-279
192184718,3988,1564,16384,-331,224,-172
192186428,3560,1500,15824,-267,-12,-541
192188140,5192,3268,14592,-275,287,-597
192189856,4284,3236,16520,-397,529,-192
192191564,3508,2352,16236,-490,328,-56
192193416,1944,60,16276,-292,44,-437
192195186,2620,1920,15752,-68,172,-618
192196873,2004,2524,17224,-125,304,-268
192198557,2136,2388,17868,-180,84,-237
192200238,3492,1972,16976,-191,7,-350
192201918,3984,3100,16164,-248,-79,-243
192203662,3984,2864,15588,-222,286,-145
192205364,2796,2852,17264,-318,21,-63
192207076,2240,860,16208,-327,-79,44
192208788,3168,1800,15160,-230,-157,-275
192210499,4120,1900,14372,-214,167,-70
192212221,4132,1668,15720,-191,251,-179
192214024,4168,1604,15868,-269,128,11
192215724,4312,1380,15276,-186,193,-75
192217412,3572,1756,15244,-195,462,156
192219093,2320,732,17044,-51,504,-81
192220813,3036,1884,16472,-28,256,-80
192222532,3108,1704,17008,-45,236,108
192224222,2916,1688,16292,-7,466,127
192225932,1256,1416,17884,-10,273,43
192227641,1144,1808,17196,25,102,-90
192229337,2028,2788,17056,-46,241,-21
192231025,2724,2216,16368,-113,280,162
192232709,2008,2172,16732,-94,264,51
192235390,2536,2260,16180,-158,76,115
192237138,2088,716,15944,-155,28,64
192238857,2196,1640,16224,-75,127,-241
192240579,2336,2164,16388,-148,75,-174
192242299,2520,2204,16676,-94,81,-55
192244035,3808,2192,15968,-64,61,-177
192245788,4036,2668,16072,-176,187,-184
192247520,2516,2160,17148,-205,409,29
192249225,1488,2480,16844,-58,143,-111
192250918,1548,2000,16144,-231,-82,113
192252593,1568,1512,16216,-180,106,30
192254262,1984,1740,16944,-128,171,113
192255937,2804,1008,16328,-12,-24,-185
192257616,3112,2444,17180,-2,-58,-317
192259297,2812,2896,16660,-283,-45,326
192260976,1444,624,17000,-71,37,-76
192262657,1700,1604,17648,-28,-176,-329
192264338,3108,1776,16392,-267,-325,18
192266068,3608,1216,15848,-98,-50,-94
192267784,4096,1568,15660,-119,-49,-105
192269506,3716,904,15772,-138,7,-273
192271216,3868,2428,15872,-26,297,-373
192272927,3140,2392,16092,-187,228,27
192274633,2540,1800,15980,-262,171,-43
192276342,2192,1336,16372,-122,218,-276
192278078,2628,2776,17812,32,143,-303
192279890,2632,1576,16424,-155,51,106
192281745,1836,1256,16976,-143,4,-181
192283560,2632,2408,17436,-33,115,-327
192285305,2864,2580,16948,-6,-85,-93
192287152,3804,2852,16000,-172,44,-82
192288861,3532,2748,17404,-262,231,-106
192290541,3512,1376,16092,-203,97,72
192292281,3348,852,16176,12,-161,-216
192293993,4100,2040,15272,-94,-43,-100
192295658,3800,1720,16020,-114,146,88
192297387,3440,92,14624,-17,52,20
192299069,3992,1212,15712,162,17,-480
192300763,4156,3196,15832,120,90,-392
192302453,4800,3240,15616,-164,284,244
192304144,3856,312,16268,-189,293,196
192305826,2996,-516,16036,-23,297,-130
192307563,2384,1272,17336,307,227,-498
192309272,2372,3008,17204,60,107,35
192311007,2276,1788,16500,8,209,-16
192312733,2304,1588,17092,59,183,-62
192314452,3880,2236,16440,292,313,-268
192316165,3240,2816,16124,11,-90,359
192317944,1752,564,16560,9,47,488
192319647,1804,428,16476,289,44,-447
192321389,3712,2336,15224,334,160,-99
192323115,4452,3072,16592,271,192,-15
192324814,4324,3136,17284,70,57,125
192326522,3084,676,15352,-34,228,309
192328312,2064,1792,16120,420,342,-416
192329991,2784,3260,15992,-16,236,163
192331667,1720,2340,16356,-70,228,280
192333337,3212,1576,15560,192,355,-146
192335005,2992,1948,17652,161,91,-62
192336670,2604,2068,16592,120,139,49
192338377,488,1496,17812,121,12,48
192340098,904,2240,18036,193,-97,-95
192341824,1508,2260,17436,122,-170,49
192343547,2228,1436,16668,323,-58,-4
192345263,4304,2536,17792,226,-134,-6
192347039,2588,1236,16160,13,-123,349
192348802,1852,564,15820,222,-170,74
192350512,2180,2976,17144,381,-176,-256
192352203,2652,1908,15596,-56,-94,340
192353859,2392,628,15752,16,6,180
192355509,3204,664,16208,370,-130,-421
192357165,5664,2812,15272,254,-5,-258
192358817,4124,3736,16000,80,170,-41
192360473,3528,1280,14916,25,363,121
192362219,1788,1764,17452,166,-96,-342
192364085,1968,2840,16668,200,172,-295
192365900,2424,3460,17560,132,163,-148
192367680,1848,2520,17232,-52,-149,215
192369413,3572,716,16440,225,120,-414
192371178,3120,3484,16768,62,-57,-68
192372990,2312,2700,16636,3,-3,197
192374776,1256,2088,16620,6,-331,-123
192376523,2620,1348,16264,39,-112,-98
192378239,3548,2728,16532,189,-64,-114
192379940,3792,2364,15932,75,-194,77
192381726,4096,1924,16232,-67,-212,-54
192383416,3216,1000,15060,12,145,-87
192385094,3468,2224,15880,248,205,-405
192386764,3428,3600,16332,36,90,-269
192388433,2584,1880,15900,-195,223,34
192390114,3112,1456,16524,48,256,-190
192391854,3636,1448,16220,93,274,-258
192393618,3484,2560,17528,43,92,-291
192395380,2268,1092,17164,-94,36,201
192397083,1488,-180,16108,12,18,94
192398777,1460,608,17192,250,-174,-592
192400482,2660,2788,17172,301,-63,-323
192402213,4008,3916,17120,19,-159,-13
192403908,4968,2660,15460,-136,-102,261
192405608,3924,-44,15784,305,98,-451
192408091,4612,2396,15852,257,254,-113
192409796,3436,1648,14980,125,237,-117
192411514,3216,2828,15376,46,398,-74
192413262,3864,1800,15144,209,413,-207
192414962,4704,2908,16048,246,392,-344
192416683,3648,1964,16988,-42,259,210
192418395,1712,36,15976,127,314,-53
192420116,1704,1784,17320,343,69,-603
192421864,3168,3012,16316,290,104,-347
192423579,3432,2808,17708,91,140,114
192425264,3212,688,17128,107,144,80
192426945,3168,396,17080,204,109,-110
192428635,1872,1988,16524,317,-237,-174
192430323,1624,3056,16876,274,-45,-89
192432029,2916,3228,15204,96,-103,144
192433784,3092,-60,14908,246,175,-1
192435462,6112,3000,15908,463,264,-647
192437140,6504,4280,16616,173,261,-125
192438812,3420,2292,14780,-44,579,318
192440485,1568,900,17188,362,753,-239
192442163,1608,1680,18184,323,445,-313
192443886,1724,724,16208,224,394,150
192445575,1392,1532,17316,471,440,-386
192447269,1756,2304,17424,204,-214,-16
192449016,2692,2776,16496,191,113,-215
192450759,1964,3772,16980,60,-208,28
192452485,1328,2072,17296,-32,-189,151
192454307,1840,-1324,15484,222,-5,-193
192455987,3024,364,17444,511,130,-949
192457679,4000,4852,16840,-157,-364,296
192459358,3228,748,14532,188,505,-329
192461035,4528,2980,16288,285,587,-760
192462701,2864,2532,16652,-235,230,338
192464469,2132,2284,14544,120,349,-385
192466272,1456,2280,16108,27,385,51
192468119,460,1444,16712,52,236,-43
192469868,1760,1984,16648,192,-53,-404
192471676,2656,2916,17416,99,1,-108
192473480,2644,3120,17352,-39,-201,73
192475437,1668,1524,16740,-51,-120,-41
192477202,1628,1944,17708,51,-31,-267
192478928,2804,2424,15620,-88,-118,156
192480668,2472,1740,17132,63,-86,-430
192482454,2820,2808,16372,-199,18,126
192484220,2768,1460,15904,-123,173,18
192486004,3760,2568,16452,-73,8,-154
192487782,2560,2252,15904,-226,-74,-95
192489544,2860,2288,15968,-182,64,-193
192491330,2664,1776,16532,-129,-187,-150
192493117,2936,2312,16056,-140,-281,-304
192494821,4180,2748,15940,-232,-119,-178
192496505,3756,1240,16836,-289,78,-41
192498189,3252,524,17348,-245,-120,-218
192499850,3536,1448,15892,-49,-178,-602
192501518,3684,2384,15988,-179,130,-109
192503184,3140,1336,16300,-192,219,36
192504838,2616,1144,16220,26,43,-534
192506494,4244,3200,15960,-40,-5,-263
192508153,4256,3052,15876,-46,132,-12
192509799,4792,3108,14944,-111,343,-65
192511478,2820,1744,16456,-97,48,59
192513156,3388,1396,15420,-4,144,-4
192514811,3384,1552,16240,45,20,-82
192516460,3324,1756,16324,28,209,-84
192518129,3240,1960,16800,-35,240,-58
192519816,3476,1760,17064,-9,64,-116
192521537,4184,2600,16132,-90,57,-56
192523273,3368,2252,16488,-179,-11,22
192525024,1668,916,16396,-159,283,58
192526789,2008,1896,16196,-89,-22,-314
192528537,3444,1092,15484,-114,11,-123
192530319,3028,1768,16832,42,161,-369
192532138,3392,2308,16380,-24,228,-239
192533855,2396,1744,16336,-61,-67,-295
192535582,2820,3400,16912,16,195,-463
192537344,3196,4444,16300,-214,317,-23
192539160,2652,3272,16964,-225,416,137
192540917,2616,2136,17048,-66,-64,-74
192542659,1560,944,16804,-207,-198,123
192544400,1068,1340,16340,90,-85,-418
192546135,1712,2972,16188,109,-37,-304
192547848,1640,3380,16776,-201,-476,188
192549599,3792,1676,14808,-153,-371,127
192551380,4080,2412,16676,-174,56,-17
192553150,3980,1724,15900,-251,15,200
192554891,1416,1288,17372,-118,-171,-98
192556628,2676,2484,15104,-143,-143,-32
192558336,2964,2228,15252,-171,82,184
192560072,2656,1592,16840,-49,390,106
192561753,3564,2400,16464,-126,-178,-22
192563399,4280,2552,14896,-163,203,8
192565045,2636,2364,16576,-188,95,149
192566687,-532,1132,18564,-103,-6,115
192568328,-412,1664,17392,-137,-271,-132
192569987,1564,2020,16892,-327,-351,-87
192571689,2428,1572,17048,-141,-319,-202
192573411,4720,1888,15632,-299,-274,-159
192575126,4064,1672,16612,-386,-101,-187
192576839,3368,2400,16096,-384,-332,-269
192578548,3116,1372,15988,-296,-58,-243
192581450,3204,1568,15668,-293,148,-460
192583234,3348,1824,16124,-206,175,-451
192584949,4800,2800,15028,-159,-57,-287
192586661,3484,2120,15976,-259,247,-87
192588375,3296,2264,15332,-173,402,-229
192590126,2436,3344,18232,-204,193,-5
192591847,1388,2260,16368,-176,-373,53
192593574,3692,3876,16652,-104,-171,-126
192595347,4060,4016,16652,-250,15,289
192597079,3300,1404,17196,-294,-179,355
192598770,4228,1920,16460,-207,-735,-75
192600460,5148,2168,14452,-295,-416,138
192602153,5392,392,14072,-263,211,369
192603839,4064,-240,16856,-239,204,-44
192605525,4424,1092,14676,-218,111,-390
192607239,4848,2520,14868,-128,369,-385
192608941,5196,3036,14504,-345,533,147
192610705,2432,324,16772,-341,459,-214
192612435,2792,780,16968,-241,350,-538
192614169,3516,1040,15372,-66,82,-229
192615890,2596,2236,17348,-66,260,-264
192617605,1600,1180,16756,-149,184,-181
192619316,2136,1920,17652,54,270,-460
192621077,3480,3324,16016,49,-87,-222
192622828,2768,3032,17424,-131,366,3
192625409,1452,1692,17228,-122,274,-110
192627319,2592,2552,16548,-209,-158,-72
192629143,3008,1748,15744,-151,243,-118
192630893,3616,2020,15476,-228,523,88
192632618,2168,988,15996,-196,-19,-96
192634322,2628,1764,15576,-156,-41,-265
192635984,2436,2172,16068,-142,174,-103
192637660,3216,1880,15712,-175,400,155
192639312,1644,1728,17748,-192,238,8
192641031,2852,2384,16896,-216,-182,-111
192642727,2908,2524,16796,-92,158,11
192644430,2560,2412,16504,-117,94,237
192646133,924,916,17772,-47,163,95
192647834,1792,2152,16816,-70,6,-85
192649531,2248,2032,16796,27,24,5
192651251,2736,2816,16144,-70,58,225
192652979,1968,1232,17216,-148,253,23
192654709,3200,2132,16108,-184,-71,13
192656397,2576,1328,15664,-168,54,135
192658057,2972,1436,15768,23,40,-334
192659708,2232,1836,17336,-302,184,18
192661434,2252,1316,16360,-333,-23,-45
192663112,3180,1840,16536,-84,-37,-385
192664796,3356,2504,15424,-232,48,0
192666485,3008,1352,16184,-242,239,39
192668172,2184,1444,17156,-180,-10,-309
192669853,2168,1704,16316,-158,-74,-251
192671542,2004,1804,16788,-97,-56,-357
192673232,2716,3340,16364,-128,178,-178
192674936,2956,2604,17636,-300,-80,7
192676690,2912,1336,16152,-272,-82,-66
192678424,2192,1180,17088,-120,-109,-235
192680139,2820,2756,15704,-129,-80,-294
192681936,3472,2092,16416,-290,-41,-62
192683739,4056,2020,15532,-243,-61,-198
192685489,3760,2124,15368,-228,0,-248
192687205,4540,3176,15164,-106,388,-344
192688898,3788,2580,16876,-517,290,383
192690603,2540,368,15944,-449,154,284
192692305,2588,1552,16616,-31,74,-538
192694068,3080,2784,15688,-129,294,18
192695775,3508,2852,16372,-294,197,-78
192697435,3636,2692,16864,-411,86,5
192699094,3136,1204,16392,-254,-23,-91
192700757,3808,2248,16084,-139,246,56
192702417,2420,1276,17420,-243,156,152
192704126,3156,-24,16544,-187,-22,-195
192705824,3160,1120,16780,-63,-20,-278
192707543,3468,1728,15864,-33,0,-281
192709294,4548,3524,16628,-89,143,-164
192711113,4692,1804,15812,-395,46,324
192712918,3640,124,16024,-45,389,-171
192714836,3524,1744,14332,106,316,-174
192716580,2608,1824,16020,28,274,-112
192718264,2976,1156,16256,-38,411,-64
192720088,3404,1524,15648,88,322,-258
192722144,3352,3024,17108,103,359,-200
192723892,2496,2300,17860,-143,327,173
192725590,1340,1428,17940,-126,178,214
192727270,1588,1220,16464,161,82,-278
192728939,2500,2896,16540,174,206,-50
192730617,2772,2484,17416,77,282,202
192732299,2356,904,17176,144,39,198
192733980,2248,1588,15780,173,-80,61
192735706,1608,1712,16360,222,-8,20
192737381,2260,3264,16740,249,159,44
192739052,3332,1660,15988,-122,-3,579
192740736,3876,1328,15500,76,97,-155
192742426,3940,2168,16060,50,291,-99
192744099,2632,1212,15968,75,264,192
192745792,1496,880,16644,36,152,-87
192747464,1076,656,17336,-21,26,-117
192749134,1172,1072,16368,151,233,-245
192750827,948,1508,17476,191,-24,-142
192752521,1028,1780,17876,130,-225,-300
192754838,2728,2432,17088,19,-37,-88
192756571,2084,1632,16780,87,-105,-46
192758261,288,1556,18280,186,-174,-205
192759911,1364,1636,16388,171,-310,-316
192761565,1608,1820,16900,223,-247,-246
192763217,2860,2108,15476,196,-264,-114
192764897,3596,2296,16836,276,-125,-308
192766614,3848,3372,16336,203,-255,-116
192768314,3264,1688,15160,109,-288,187
192770031,3128,2132,15480,207,-36,-206
192771741,2820,2660,15692,99,159,-95
192773451,2668,1596,15940,180,-49,-130
192775161,3744,2944,16644,61,-329,-75
192776894,3808,1744,15496,6,45,49
192778605,3264,1616,16124,115,147,-121
192780312,2544,1728,16936,64,-22,-165
192782021,2432,2864,17512,1,-326,-284
192783729,2876,3648,16644,-19,-267,-71
192785437,3040,2356,15384,-63,-214,128
192787168,3380,1260,17236,11,-190,-108
192788877,3996,1224,16888,65,-207,-203
192790618,4280,1744,16448,76,-318,-206
192792354,3976,2348,15548,45,-171,-44
192794122,3712,2116,15900,18,99,-190
192795910,5296,2172,14432,-14,161,-282
192797736,4812,2236,15784,-52,134,-208
192799430,5136,2272,13928,-60,340,-118
192801112,3632,860,15240,97,399,-70
192802782,3392,820,15388,126,384,-224
192804453,2924,1248,16400,59,219,-203
192806122,2620,1936,16612,175,314,-192
192807839,2496,2448,17132,253,262,-204
192809537,3188,2656,17624,89,-31,94
192811248,3796,1876,17212,-16,60,-46
192812970,2568,1520,16796,154,177,53
192814689,1932,1152,16872,267,-82,4
192816405,1788,1580,17780,213,-231,-175
192818152,2832,1188,15500,109,53,49
192819861,4124,2300,15328,365,123,-221
192821572,4308,2984,16284,339,9,-149
192823330,5196,2832,15236,61,145,226
192825081,3820,984,15316,166,340,291
192826802,2924,456,15980,284,326,58
192828602,3256,1664,14872,307,292,-169
192830287,3628,2388,15792,352,665,-67
192831955,3104,2148,17244,207,293,228
192833621,2848,1552,16612,163,184,165
192835291,2016,1164,16376,250,451,-69
192836966,1172,3272,17696,331,294,-158
192838682,1136,3356,18036,113,47,107
192840755,1376,1160,16788,-44,75,56
192842525,2680,1912,17164,168,236,-306
192844240,1760,2304,17792,150,-155,-135
192845915,1056,1744,16884,-59,-175,139
192847592,852,360,16184,19,-59,19
192849267,2344,1876,17168,354,-76,-468
192850929,2764,1944,15540,177,-187,178
192852594,2912,1160,15516,208,5,-18
192854262,4584,2728,15740,325,183,-220
192855943,3116,2852,15688,175,26,124
192857615,3116,2256,15184,236,200,116
192859334,1632,2184,16448,256,244,-102
192860991,1464,1816,16548,129,46,69
192862663,1684,1044,16352,174,90,-1
192864343,2408,1632,17020,304,-29,-366
192866025,2996,3148,16948,133,112,-176
192867703,2204,3464,17436,45,-38,-117
192869435,1836,2628,17592,-10,-106,27
192871136,1572,1468,16392,-34,-204,-56
192872842,1788,1468,16404,146,-110,-298
192874549,2712,3020,17380,99,-281,-42
192876262,3092,720,16204,8,-282,108
192878002,4932,2848,15020,284,-89,-471
192879806,4916,3860,15808,239,38,-119
192881512,4228,2656,15364,-4,-61,327
192883202,3232,1036,15472,-14,-8,41
192884898,3548,1152,14608,118,81,-173
192886604,4344,2988,15704,233,142,-119
192888298,4112,1136,15604,-2,223,317
192890061,3840,1380,16264,131,200,-225
192891776,3932,1924,16016,104,132,-161
192893489,3256,1732,16592,140,240,-57
192895264,2976,2040,17032,84,390,-33
192897041,2620,1684,16180,-26,-31,-98
192898793,2540,2144,16372,49,34,-211
192900517,4564,2948,15896,65,291,-174
192902202,3384,1780,17672,-82,55,211
192903858,3080,764,16168,-54,-158,56
192905517,2656,620,16792,151,-2,-341
192907173,3800,2344,15872,292,255,-354
192908827,3256,2840,16384,125,150,-144
192910509,3000,1724,16064,79,50,-146
192912204,4408,3276,16348,23,100,-163
192913916,5028,2668,15212,3,157,16
192915620,3916,2128,16100,131,303,-169
192917329,3320,380,16152,118,489,-33
192919037,2916,1400,15384,178,173,-466
192920769,2972,2388,15484,196,298,-400
192922494,3768,3628,15432,245,467,-225
192924270,3648,2552,17564,-39,542,379
192927214,1708,680,17008,186,153,-221
192928982,1764,1300,16772,266,188,-293
192930708,1976,2556,16996,214,316,-164
192932410,2056,2236,16624,6,236,122
192934077,2284,1104,17044,126,67,-281
192935751,3060,2032,16912,162,59,-374
192937425,2228,2200,15848,65,154,103
192939089,1048,1692,16956,148,128,-331
192940819,1656,2448,17076,59,77,-307
192942530,2364,1712,15428,26,128,-128
192944245,3180,2740,16852,213,253,-507
192945954,3400,3736,17088,20,197,-275
192947633,1444,2132,17048,-153,253,16
192949316,1264,2060,16432,109,49,-289
192950999,1088,2116,17140,129,18,-264
192952683,1544,2708,16652,66,21,-213
192954377,1236,2392,18004,82,-7,-8
192956075,2396,2592,17076,-31,-524,-97
192957766,2380,2900,16660,-26,-392,-127
192959457,2888,4492,15728,-39,-220,-10
192961149,2652,2152,16364,-235,-285,512
192962899,3108,304,16232,-209,-295,235
192964605,3392,1772,16372,-37,-231,-415
192966312,4140,3276,14948,-9,290,114
192968045,3880,3112,16120,-99,237,176
192969799,3288,1608,16996,-386,-33,323
192971581,2592,1536,15272,-168,80,-141
192973608,2772,3148,16064,-69,81,83
192975430,1628,1288,17392,-320,-313,295
192977160,1900,1136,17012,-147,-375,-238
192978865,3140,2276,16860,-19,-405,-275
192980566,3716,2668,16816,-198,-411,197
192982250,3276,600,16924,-355,-237,79
192984043,3560,180,16252,-267,-225,-147
192985744,3680,2416,16664,-17,-221,-428
192987445,4528,2764,14928,-343,82,106
192989139,3508,1028,15548,-326,328,-230
192990860,3556,1240,16088,-243,257,-398
192992577,3940,2148,14928,-199,14,-420
192994347,3792,2848,15144,-317,247,-187
192996051,3136,1964,15656,-335,397,-13
192997785,2052,956,16936,-245,81,-411
192999498,2412,2872,16924,-164,-366,-478
193001177,3628,3976,16672,-184,-21,-261
193002853,4448,3672,17052,-298,149,28
193004595,2708,860,17728,-399,-313,54
193006274,2968,2404,16952,-81,-259,-393
193008034,3268,3104,16664,-80,-348,-171
193009715,3304,2172,15624,-265,40,308
193011394,3200,760,15428,-228,-20,62
193013108,3492,1244,15896,-101,-34,-156
193014883,4792,3652,15352,-80,-166,-86
193016594,5560,2300,14028,-278,474,368
193018307,3984,500,16576,-319,408,170
193020035,3204,468,16132,-282,291,31
193021729,3040,1296,15300,-20,222,-381
193023461,3380,2672,16380,-204,516,156
193025273,1788,252,16964,-175,448,27
193026972,1300,288,18204,-77,160,-310
193028657,2732,2324,16940,10,20,-374
193030340,2176,2068,16608,-107,215,54
193032058,1052,1416,17496,-72,225,15
193033743,1052,1716,17824,-78,-236,-342
193035481,2620,2988,16700,3,-167,-169
193037182,2656,2980,16784,-12,-118,21
193038897,2424,1548,16212,-40,57,87
193040610,2672,2888,16344,-7,-227,-254
193042321,3936,3888,15624,17,-32,90
193044145,4180,3868,15808,-83,-9,221
193046010,3952,2192,14736,-252,297,395
193047716,3380,2632,16572,-89,99,-34
193049388,3472,1388,15296,-153,29,478
193051056,2848,868,15328,-82,130,200
193052720,2440,1548,15912,-133,427,319
193054453,1264,1976,18180,-47,-71,80
193056308,2864,2372,15972,-200,-312,243
193058063,3484,2116,16312,-177,-159,179
193059807,3756,1868,17128,-343,308,378
193061510,1724,68,17256,-169,-164,24
193063268,2552,2056,16128,-157,-324,-144
193065098,2708,1876,16144,-205,-81,-26
193066899,2644,1052,16580,-163,266,137
193068625,2800,1504,16832,-108,-135,-147
193070320,4940,2632,14816,-115,-102,-158
193072036,4416,2864,16000,-132,152,5
193073712,3132,700,14356,-199,95,326
193075383,1392,1880,17532,30,-90,-571
193077111,3304,3712,15672,-113,-110,-350
193078822,3432,1616,15276,-165,77,269
193080544,3736,1284,15740,0,282,-183
193082256,3332,2636,17672,-158,421,-320
193083966,3484,3564,16780,-193,298,-236
193085704,2324,2516,16840,-228,217,95
193087445,1244,2168,16488,-277,305,-116
193089158,576,2780,17320,-344,254,-183
193090897,1464,2884,17512,-402,-168,38
193092637,2680,1124,16448,-380,-289,-1
193094360,3088,1664,16188,-385,-82,-174
193096077,2500,2072,16840,-348,-74,-204
193097929,3300,3340,16256,-463,-336,-122
193100196,3336,1544,15808,-612,-277,2
193101889,4632,1688,15624,-335,283,-341
193103560,4320,2236,16212,-299,72,-152
193105227,3560,1628,16372,-375,-185,87
193106877,3604,-228,14996,-167,211,-257
193108600,4476,1852,14540,11,490,-285
193110299,2904,2308,16388,-70,271,14
193112035,3184,2348,16576,-105,264,22
193113747,3392,1200,15724,-100,10,71
193115452,3996,2232,15756,78,304,-272
193117147,4296,2860,16468,21,561,-120
193118872,2880,1956,17164,-250,96,322
193120573,2080,508,16692,-119,3,-62
193122266,2736,1412,16708,-2,73,-245
193124068,3396,2984,16036,-147,333,165
193125818,2864,2172,17136,-151,190,108
193127529,3536,1272,16648,-310,33,188
193129226,3056,660,15920,-243,-6,48
193130920,2648,1768,15476,58,331,-233
193132652,2528,2708,16736,-71,197,-11
193134417,3000,2524,16012,-351,-38,217
193136142,3596,1080,15132,-232,226,235
193137839,3764,1916,16144,83,234,-282
193139542,2856,2112,17304,-139,169,241
193141249,2456,1408,16560,-153,159,164
193142997,2676,1744,16664,-14,151,-172
193144759,2636,3004,16584,-13,182,-46
193146521,3436,3420,17120,-97,579,237
193148250,2764,2512,18280,-208,251,434
193150030,2168,412,16412,-102,-95,220
193151712,1868,1308,16320,138,-37,-99
193153379,2336,2040,17076,74,305,273
193155040,1972,2064,18020,-72,0,321
193156703,2344,172,15908,-60,-296,260
193158365,3424,748,15676,199,-177,-172
193160100,6192,3460,15568,119,429,218
193161804,3760,1084,16404,-76,241,452
193163516,2580,1708,15588,37,113,95
193165229,2304,1688,15592,128,371,75
193166939,2264,2508,16304,156,396,160
193168648,1672,1456,17336,-98,40,354
193170359,2208,432,16260,-65,-72,214
193172089,3316,3452,17492,139,309,-294
193173793,2964,3108,14968,-125,-42,543
193175496,312,1612,18788,-88,-142,82
193177208,1912,1628,16368,-122,-51,92
193178918,1632,1308,17636,43,-232,-35
193180626,3076,2212,16616,22,-201,255
193182336,3732,1084,16144,-35,-189,330
193184070,3560,956,17756,-30,253,25
193185782,3536,520,14736,86,-28,137
193187492,1724,1988,16736,265,-51,-265
193189201,2380,2696,16264,84,-30,-20
193190914,1712,1336,15992,20,82,180
193192629,2492,1860,16664,236,-277,-189
193194342,3940,2688,15992,214,-196,-91
193196067,3444,3116,16492,-52,-53,235
193197781,2716,1344,15828,-22,-6,343
193199491,1528,2476,18096,128,-276,-103
193201261,2708,2912,16212,31,-159,161
193202989,2400,2520,16172,90,-17,163
193204652,3256,2580,16960,-7,-72,248
193206302,4036,1644,15828,-34,67,346
193207946,4040,1036,15200,97,-45,32
193209591,2688,700,16580,52,108,180
193211292,2232,52,15136,57,166,65
193212993,1456,1288,17236,286,334,-422
193214717,1748,2660,17828,137,2,-96
193216435,2648,3312,16700,41,-140,-272
193218149,2916,3880,16640,-87,-105,-125
193219862,4576,912,16208,51,372,102
193221649,2956,720,17356,51,-170,-142
193223471,1312,1648,16380,35,-278,-190
193225229,1864,2464,15332,192,-98,-356
193226949,3348,3444,16372,221,215,79
193228654,3928,1300,16208,-23,97,198
193230369,3296,680,17468,22,-14,-48
193232190,4732,1872,14776,288,15,-83
193233890,3916,2468,16012,218,207,138
193235574,3224,332,16572,36,377,277
193237256,2732,256,17732,91,175,-78
193238936,3940,1448,14888,314,187,-140
193240632,4212,2136,16588,347,282,-97
193242332,3952,2388,17084,155,228,65
193244096,1936,-108,16472,119,49,146
193245853,3020,2996,15732,341,-140,-460
193247589,3396,3028,16184,178,149,158
193249301,3404,2740,16284,197,210,121
193251004,3640,1256,16184,162,-17,156
193252790,3300,1108,16996,304,21,-99
193254484,3712,1888,15380,381,274,-102
193256168,3040,3340,16664,393,335,99
193257855,2464,3176,17056,120,52,424
193259542,2884,1340,15848,241,224,251
193261232,3900,1796,15448,429,367,92
193262980,3596,3608,16760,271,214,304
193264685,2492,768,16408,106,157,650
193266394,1520,152,16756,234,125,222
193268113,2428,1604,16420,318,136,127
193269828,2904,2084,16060,216,19,194
193272754,3248,428,15920,94,61,292
193274511,2492,140,16576,249,46,-80
193276204,2872,2444,16076,239,-2,-118
193277884,2364,2836,16216,50,162,-7
193279576,2080,1480,16208,56,113,64
193281280,2076,1052,16460,177,86,-115
193282972,3820,3168,15704,284,169,-340
193284677,3012,3452,17280,122,137,149
193286386,2720,2776,15948,26,140,222
193288093,1536,896,16048,227,151,-157
193289809,2588,3640,16772,268,99,-211
193291542,2880,3408,16176,146,115,189
193293327,2428,2496,16184,30,-28,91
193295022,2900,1376,16580,188,239,-90
193296705,2936,2032,17360,98,127,36
193298384,2736,1708,16600,16,30,83
193300066,1728,1840,16484,42,98,-194
193301828,1924,2124,16608,38,128,145
193303643,2020,1524,17004,64,-165,-155
193305318,2296,2852,16580,-84,-377,-224
193306981,4552,3188,15732,-83,374,-54
193308637,3884,1944,15808,78,25,231
193310298,2528,1416,16800,100,-84,209
193311960,2276,1040,16144,4,-288,-51
193313656,3152,1360,15260,297,319,32
193315429,3012,1300,15816,427,349,14
193317281,3688,2252,16976,228,20,98
193319128,4148,2236,15800,189,58,38
193320945,5220,2072,15044,200,416,289
193322697,3368,448,16716,234,416,152
193324501,2804,908,16940,214,308,-64
193326259,2492,1288,16120,254,-35,-59
193327943,2752,2220,16688,224,-26,-67
193329602,3656,1844,15920,151,177,56
193331261,3204,1116,17444,247,83,-234
193332916,4296,3120,16548,54,-229,-57
193334627,4092,2176,15512,10,-180,239
193336313,3456,1236,16524,320,233,-221
193338018,4196,2676,15372,159,180,3
193339717,3808,1648,15244,181,357,-174
193341420,4272,2012,15680,222,425,-186
193343171,3828,1468,16000,283,496,-15
193345028,3256,2532,16256,245,484,-46
193346739,2612,2348,15644,200,510,35
193348413,1820,2520,16896,263,538,-88
193350079,2812,2700,16664,195,379,75
193351741,3056,2676,17020,73,153,34
193353405,2796,2536,17328,61,270,99
193355118,1640,1408,16428,189,133,206
193356814,1152,1052,17424,200,-38,-15
193358526,1768,1488,17736,163,-38,-140
193360236,2408,1828,16816,186,-42,100
193361945,2988,2056,16032,247,-165,19
193363655,3752,2648,15932,218,-28,-61
193365388,3992,2504,16416,-73,126,125
193367097,2628,1456,14908,60,121,88
193368805,2088,2268,15924,200,158,-378
193370511,2272,3016,16168,31,172,-194
193372220,1864,1632,16380,-9,247,5
193373930,2080,2116,16740,137,-116,-329
193375660,3636,2420,15592,170,42,-283
193377368,2060,3852,18152,16,277,-172
193379080,1428,2052,17468,-125,100,168
193380791,884,2804,16720,50,-318,-333
193382500,1396,3396,16836,15,-96,-210
193384212,1508,2452,17448,-97,-30,184
193385948,2256,1572,17276,-135,-388,-40
193387657,2820,1512,17104,-142,-465,-149
193389364,2972,2972,16580,-38,-162,-161
193391080,3332,3124,15636,-198,-119,165
193392796,2484,1784,16280,-373,-254,73
193394506,2968,1728,14916,-362,-154,-69
193396214,3316,2084,16120,-79,-76,-189
193397893,3936,2540,15856,-250,-186,207
193399611,4016,1392,15320,-340,-14,241
193401362,2756,1228,16724,-148,-63,-139
193403165,2868,2704,16740,-74,-56,-106
193404943,2628,3000,15960,-248,-30,172
193406715,2440,2432,16472,-348,32,183
193408468,2708,1544,17012,-325,-18,-43
193410245,3548,1100,16060,-236,-72,-94
193411999,2864,1448,16716,-150,-193,-249
193413782,2228,820,17252,-207,-178,-57
193415468,2552,676,16432,-200,-157,-219
193417179,2568,1956,17332,-203,-356,-298
193418863,3712,1896,16152,-67,-172,-283
193420536,4416,3080,16004,-124,-285,-349
193422207,4624,2708,15804,-328,57,135
193423878,4200,1108,15068,-117,-22,-38
193425577,3568,656,15444,16,-121,-106
193427302,3232,1184,15480,40,-16,-380
193429021,3684,2880,15616,0,353,-273
193430710,3244,3492,17324,19,216,-117
193432406,4732,3108,15556,-199,-43,167
193434090,4632,2044,16600,-136,330,7
193435767,2136,1700,16404,-94,219,330
193437504,844,752,17520,-4,136,135
193439245,2144,2508,16444,-22,-238,-282
193440958,3312,2584,16676,-125,159,276
193442682,2576,1820,16564,-38,110,319
193445354,4132,3060,16944,-289,-438,276
193447144,2204,788,15604,-227,-180,225
193448891,3136,2468,15872,-54,-26,-176
193450576,3896,3012,15424,-186,88,122
193452238,4148,2892,15908,-229,-13,28
193453907,4228,1856,15880,-206,-18,322
193455567,4612,168,15056,-98,58,442
193457223,2516,476,15716,170,249,-128
193458883,2252,2892,16860,143,295,-10
193460577,2188,3280,16940,67,140,181
193462284,2064,1480,16596,124,197,373
193463989,3856,2816,16100,134,176,116
193465738,4164,3376,17672,7,463,205
193467456,2656,2408,17280,-251,-26,589
193469189,660,900,17420,-53,-182,243
193470901,1648,1856,16120,-153,-82,182
193472610,1404,1720,16456,-185,33,240
193474317,2448,1412,16828,-255,-309,223
193476054,4680,76,15788,-175,-191,-170
193477763,4276,1592,15960,-207,-71,-299
193479574,3436,2464,14708,-202,82,-52
193481300,1892,2168,17408,-244,-12,-187
193483002,1928,828,15952,-358,153,-12
193484693,1420,408,15840,-119,150,-350
193486392,2184,3656,17208,86,24,-458
193488104,4720,3308,16252,-226,220,70
193489799,2584,2596,17596,-307,198,137
193491513,1396,1536,16320,-79,85,-15
193493271,236,4060,18184,20,-234,-322
193494997,1684,3484,17072,-311,-151,429
193496702,1584,1868,16416,-245,-215,452
193498403,2708,1428,17524,-52,-461,-31
193500099,4928,2100,15816,-227,-132,189
193501795,4304,2288,16008,-210,-73,176
193503479,3892,1928,15712,-406,-67,389
193505161,2764,412,15680,-320,-42,-115
193506865,4528,3076,14904,-312,343,-80
193508559,3732,2468,15740,-386,302,274
193510243,4304,476,15744,-326,192,-70
193511949,4168,500,16296,-212,350,-323
193513667,3076,1300,16812,-141,253,-286
193515380,2016,2012,17076,-166,138,-156
193517089,1332,1704,17620,-346,-58,-136
193518797,1204,1260,17252,-372,-116,-199
193520508,2108,1940,17492,-80,-283,-610
193522215,4380,3292,16940,-234,-77,-181
193523923,4312,848,16404,-337,-111,-124
193525631,3772,152,16128,-216,-29,-284
193527388,3268,964,15644,-30,-179,-718
193529231,4364,3428,14848,-124,215,-333
193531116,4324,2820,16116,-210,236,-106
193532832,4936,1948,15092,-235,118,-51
193534523,4844,1652,15632,-39,10,-403
193536214,3980,3276,15076,14,415,14
193537898,2780,2140,16488,-172,222,104
193539586,2884,1916,16108,-217,12,57
193541281,2780,2176,16356,-15,302,-161
193542984,5200,3716,16148,25,565,72
193544704,3776,3216,18628,-214,386,386
193546459,2528,732,16148,-265,349,362
193548211,1272,2052,17528,55,10,-259
193549938,1856,2696,17128,-99,67,264
193551723,2260,2628,17160,-161,66,256
193553405,2792,732,16696,-206,29,405
193555078,3680,1260,15924,22,-371,-234
193556752,4940,2908,14412,-26,-112,-106
193558422,3968,2704,16144,-201,266,262
193560136,3840,1104,15688,-75,160,293
193561975,3728,872,14708,81,9,41
193563718,4128,856,14376,146,444,-2
193565461,4180,1664,16676,75,524,49
193567211,2752,560,15928,0,370,57
193568961,3308,2820,15116,102,331,-277
193570731,4060,3452,15224,16,727,-69
193572484,2084,2780,17236,-314,448,107
193574180,276,624,17924,-198,330,-77
193575870,-52,864,18668,-79,50,-402
193577626,740,2504,17296,-65,105,-263
193579396,1572,3412,17788,-215,-58,-90
193581156,2236,2452,17472,-312,-175,161
193582971,2772,1888,15968,-230,-196,-13
193584703,2752,1792,15484,-145,-80,-24
193586453,2656,2092,16628,-131,57,28
193588212,2232,952,15988,-160,103,53
193589949,2964,2500,15020,-44,89,-157
193591625,3044,2980,15252,-17,169,5
193593340,3408,2240,16244,-135,296,231
193595051,3236,796,16132,-152,200,221
193596726,2528,532,16580,-99,116,-18
193598399,1948,1760,16372,-50,263,17
193600328,1420,2268,17180,-44,149,-31
193602016,2060,2196,17720,-164,-84,38
193603752,1768,1848,17700,-210,-224,106
193605461,2664,1508,16784,-84,29,-115
193607174,3432,2648,17056,-151,-241,-122
193608891,4236,2964,16124,-229,-144,-86
193610616,3212,1988,16600,-419,-208,150
193612335,2748,820,15760,-80,51,-113
193614162,3548,1164,15932,-109,-18,-224
193615889,3392,992,16044,-143,-138,-123
193618651,4512,1784,15460,63,78,-188
193620405,3892,1556,16156,2,319,-43
193622115,4072,2248,16308,2,177,-175
193623815,4032,2376,16344,-13,256,-49
193625506,3816,2264,15672,6,260,-53
193627187,2752,1644,17036,9,234,-57
193628866,2496,1316,17272,69,174,-19
193630552,2880,1464,16160,62,-87,-59
193632283,3344,1864,15992,148,138,-233
193634004,3172,3000,17596,-23,75,96
193635700,3808,2104,16452,-36,64,232
193637387,4056,1104,16640,71,-67,-7
193639067,3184,1604,16268,22,108,53
193640778,2812,1016,16408,52,162,89
193642482,2836,1220,16468,255,127,-211
193644167,3680,2724,15712,44,-118,136
193645875,3560,2048,15160,52,19,176
193647594,3952,1076,15680,188,305,97
193649309,3172,804,16340,235,175,-115
193651023,2572,1388,16476,248,87,-250
193652715,2800,3140,16760,204,261,-106
193654398,2340,2456,16516,87,323,187
193656083,1992,816,17360,187,290,-148
193657765,2372,1228,17836,219,155,-285
193659459,1480,2208,17540,175,1,-3
193661267,380,1264,17288,265,6,-83
193663111,1076,2048,17324,220,-227,-120
193664894,1272,2292,17324,143,-309,-57
193666617,2820,2292,15948,211,-277,-54
193668298,4000,1900,16484,118,-104,17
193669994,3248,1072,16332,54,-129,53
193671692,1964,1576,16016,314,-129,-344
193673374,2652,3636,15732,184,-58,-126
193675049,2780,2956,15476,26,0,197
193676783,1964,1136,16468,152,242,-79
193678483,3188,2016,16652,372,-15,-315
193680240,3592,3732,16624,97,103,112
193681977,1844,3380,16556,31,95,261
193683692,748,1680,17576,286,144,36
193685399,976,2780,18308,206,-451,-4
193687178,1256,2348,17220,86,-431,260
193688890,2144,1952,16264,177,-341,147
193690607,3696,1484,16176,202,-381,134
193692395,4024,2296,17616,88,-374,-72
193694184,4344,1920,15012,-57,-130,297
193695908,3788,1108,15096,41,70,118
193697690,3492,860,15892,78,102,-94
193699386,3060,1064,16204,144,52,-226
193701080,3808,1988,15576,179,-31,-307
193702772,3964,2748,15000,67,-36,128
193704460,3312,1460,16116,123,210,-10
193706143,3700,1720,16532,228,4,-80
193707879,3008,2052,16712,206,-191,35
193709586,2664,3200,16160,187,-140,-49
193711312,3288,2616,17124,217,170,71
193713028,3940,2364,16692,205,68,91
193714744,3820,2456,17736,157,10,-60
193716460,3980,2744,15928,125,42,141
193718195,3240,748,15696,136,231,399
193719907,2564,-44,16032,199,144,105
193721626,2952,1704,16904,164,9,-185
193723346,3636,2320,15136,98,137,61
193725061,3656,2440,15700,116,81,-55
193726775,4984,2440,15596,-77,205,155
193728493,4468,576,15788,-96,338,-95
193730254,3248,656,16196,116,124,-147
193731971,3228,324,15756,120,282,-174
193733722,2532,1124,16388,218,150,-507
193735438,2500,2564,17152,156,145,0
193737186,3472,2440,16068,215,266,-190
193738953,3408,2436,17632,188,199,-184
193740699,2080,1000,16572,212,129,115
193742400,2148,1440,16760,343,16,-314
193744083,2084,2288,17160,293,-65,-283
193745806,3060,2104,15524,92,194,60
193747571,3384,172,16356,407,308,-440
193749311,4392,2920,17024,206,-1,-391
193751078,3884,2772,16084,24,16,-30
193752850,1408,1944,15600,147,327,-369
193754639,1676,2128,16448,137,182,-277
193756397,2456,2348,16488,93,-91,-419
193758106,3436,2644,16028,173,73,-419
193759772,3484,3104,16196,119,186,-93
193761498,1888,1548,16688,186,-8,-87
193763171,1152,1872,17468,302,-11,-297
193764848,2260,3764,16444,255,-93,-79
193766520,2332,3068,16244,243,-10,169
193768193,2756,2612,16348,253,-6,259
193769866,2860,1608,17288,338,96,9
193771585,3836,3400,16480,248,-112,254
193773258,2672,2136,15160,131,104,473
193774956,2236,1396,16156,162,140,257
193776665,2448,1056,17216,87,110,156
193778378,2824,1188,15912,105,-141,-5
193780092,3416,1892,15760,154,-184,-206
193781829,3488,2140,16488,-43,191,186
193783538,2504,436,16600,9,84,-61
193785248,2620,1512,16812,110,-274,-363
193786956,2680,2228,16056,107,-103,-318
193788663,2732,2224,16472,145,133,-137
193791238,3808,2664,16308,114,-74,-333
193793060,3560,2880,17228,92,-7,-158
193794774,3056,2700,15744,164,95,-19
193796463,2228,2412,16724,154,5,-71
193798149,2276,2564,16852,163,-56,-86
193799831,2996,3084,16364,111,-141,-24
193801524,3196,2684,15928,77,-192,134
193803275,4004,2704,16360,51,-109,-41
193804985,4808,2644,15724,-70,-57,31
193806703,3988,1616,15748,-68,-63,24
193808413,3408,2904,15768,-50,65,-34
193810122,3104,2708,15908,-147,68,70
193811830,2568,1408,17056,-182,221,82
193813584,2592,1440,16760,-82,-6,-123
193815305,3860,2628,14980,-65,-92,-224
193817018,4432,3368,16316,-101,323,-100
193818734,3756,1568,16572,-350,141,404
193820445,1180,376,17292,-8,-198,-198
193822154,944,1584,17096,67,-253,-395
193823890,2156,3368,16912,20,-108,-130
193825601,2748,2212,17124,-117,-179,250
193827366,3720,288,16144,-10,-295,-147
193829124,4628,1372,16040,91,-248,-398
193830853,4720,2612,15696,-72,-17,61
193832576,3224,568,15516,-138,159,-60
193834378,3240,1436,15800,8,244,-526
193836080,2584,2564,15640,16,178,-487
193837774,3576,3280,15404,-147,212,-162
193839470,2680,888,16708,-287,49,-104
193841243,3084,596,16496,-143,164,-398
193843017,2804,2288,16776,-52,-134,-376
193844827,2108,2188,17412,-76,-76,-329
193846513,2788,1872,17084,-104,3,-149
193848191,2712,1232,16848,26,46,-174
193849898,2352,2052,16772,84,-200,-369
193851626,1544,3880,16960,46,-205,-145
193853338,2660,4288,16484,-114,-202,144
193855100,3012,2904,15716,-242,-299,417
193856763,3144,1360,15032,-22,-156,-120
193858421,4016,4228,16752,-109,-5,-269
193860077,5004,3908,14880,-347,-29,179
193861742,3136,1288,15224,-228,237,23
193863406,2812,1720,16728,-150,310,-86
193865111,2120,1276,16652,-211,290,109
193866807,1932,1200,16800,-65,252,-116
193868522,1424,1240,17480,-77,-57,89
193870244,984,1176,17756,-51,-195,-10
193871953,2948,2800,16132,0,47,-134
193873663,2036,2488,16856,-202,-326,269
193875397,976,820,17360,-109,-422,67
193877108,1580,340,16608,-43,-444,-21
193878824,2340,2000,16492,46,-260,-329
193880543,3508,3516,16704,-125,-270,63
193882256,3812,2432,16360,-229,-219,175
193883967,4664,1280,15676,-155,-72,-167
193885731,4256,2000,15084,-136,-94,-106
193887443,2816,2024,16200,-187,58,-165
193889153,2768,2132,15828,-191,-24,-259
193890866,2764,2496,15480,-176,-133,-317
193892587,3404,3412,15872,-188,-78,-43
193894357,3112,2584,16332,-252,-25,72
193896115,3444,1920,17100,-227,-280,-135
193897796,3040,1516,16432,-145,-190,-151
193899458,3228,2592,16708,-130,4,-197
193901122,2380,3104,17628,-197,-151,-114
193902788,3328,2784,16340,-382,-227,0
193904450,3708,704,15808,-389,-54,25
193906113,3216,368,16068,-245,-27,-216
193907805,3316,2804,16820,-253,-104,-417
193909513,3220,2128,15768,-520,-227,34
193911220,3136,1016,15300,-473,-49,-166
193912926,2888,1180,16568,-301,-136,-484
193914630,3056,2060,16584,-338,-234,-530
193916364,4176,2996,16004,-339,-217,-586
193918074,4928,2032,15756,-434,43,-128
193919782,3076,1116,16744,-190,-181,-413
193921488,2920,1468,15808,-79,106,-589
193923201,2832,2448,17560,-66,-20,-619
193924909,3244,2264,15696,-149,144,-51
193926639,3608,1504,15632,60,58,-508
193928406,3448,3620,16112,-8,119,-491
193930179,4128,3108,15816,-234,346,49
193931911,4512,2572,15892,-191,315,-41
193933634,2192,816,16704,-253,122,137
193935346,2032,572,15852,-90,227,-124
193937138,1880,3460,18396,-31,-50,-265
193938841,2576,2112,15596,-483,-320,503
193940553,3464,92,16780,-4,131,-332
193942256,4896,2112,17220,54,27,-419
193943951,3716,1816,15796,-424,-111,469
193945647,2812,412,15120,-20,142,-290
193947342,3712,1700,15920,78,409,-336
193949025,2560,1808,15020,-135,75,154
193950713,2600,2732,16964,99,469,-195
193952433,3700,3404,16816,11,451,-31
193954179,2844,1524,16120,-231,135,590
193955885,1160,1656,16476,171,115,-298
193957585,1568,4068,18848,-79,168,106
193959259,2064,3444,17524,-190,-79,467
193960931,2548,1404,16452,-43,7,148
193963454,3284,1992,17648,17,-56,22
193965155,2216,2128,16948,-115,28,350
193966834,2452,1400,16136,-137,-157,273
193968576,2616,596,16684,-58,-140,118
193970267,2868,1148,15928,-63,-228,102
193971963,3728,2032,15516,53,129,-29
193973679,4992,2992,16056,-256,44,209
193975371,4208,1764,15620,-359,96,400
193977068,2280,1092,16032,-10,153,-213
193978826,2132,2976,17012,-175,241,139
193980533,2100,2268,17216,-317,103,269
193982245,1764,1520,16908,-309,-32,349
193983952,2816,732,16052,59,-142,-91
193985661,3084,3300,18352,-35,167,-68
193987369,2544,3132,17712,-269,-128,318
193989102,976,820,16652,26,22,47
193990818,2356,2880,16688,55,-198,-268
193992615,1496,2456,16800,-127,20,58
193994398,3104,2724,15944,1,178,-140
193996122,4628,2148,15792,-218,-252,187
193997834,3376,1520,16500,-180,25,-232
193999637,2836,2664,15468,-227,296,12
194001323,2200,2572,16704,-209,243,-50
194002994,3140,2688,15240,-390,-43,12
194004685,3108,1432,15932,-289,72,-69
194006446,3172,1568,16144,-213,214,-106
194008254,4364,2188,16604,-202,69,-132
194010083,3488,1924,16352,-305,-122,1
194011773,2916,2188,16112,-257,29,-12
194013455,2784,2064,16056,-203,109,98
194015168,2584,2760,17104,-290,-50,-97
194016856,4220,1660,15352,-384,103,89
194018539,3848,1460,17136,-258,173,-81
194020240,4380,1560,15368,-314,211,101
194021937,3664,48,16288,-272,-103,-236
194023647,3784,16,15520,-234,201,-184
194025358,3200,-56,15516,-90,274,-398
194027069,3152,2600,16308,-75,229,-331
194028807,3648,2480,16168,-285,167,-151
194030544,4260,2536,15472,-245,182,-226
194032252,4416,1816,16936,-212,327,-133
194033956,3420,700,16240,4,630,-268
194035649,2528,1636,17080,-55,419,-384
194037341,1900,2336,16836,-57,301,-257
194039032,1328,3088,16924,-62,63,-180
194040739,3228,3108,16592,-84,423,13
194042449,2844,2828,17992,-144,349,82
194044144,2800,1612,16188,-29,-199,154
194045836,1608,2080,17692,31,-434,62
194047541,3344,1904,14580,-44,-85,181
194049247,3120,1384,16576,33,165,88
194050974,4040,1848,17004,72,7,191
194052719,5408,2060,15136,60,149,193
194054426,5256,2124,14948,154,430,407
194056112,2380,1944,16512,137,306,448
194057785,2016,1572,16000,86,180,246
194059438,2428,1732,16060,134,156,166
194061091,3248,3060,15984,171,350,264
194062804,3588,528,15816,9,160,535
194064484,3296,16,17548,58,178,228
194066174,2528,704,17036,49,62,138
194067867,1468,180,16456,165,231,-104
194069560,1288,1188,18012,173,201,-252
194071252,1488,1624,18124,83,-40,-51
194073003,4668,2260,16244,167,26,-168
194074711,2904,1320,16560,-118,-1,216
194076422,1568,256,16280,-1,-28,12
194078131,1136,1304,16868,332,-206,-426
194079846,3548,2556,15480,252,-81,-200
194081562,2272,3132,16372,83,-79,99
194083301,2056,1276,16092,267,128,-36
194085012,4700,2676,17016,383,33,-407
194086720,3156,3196,16708,3,-62,324
194088429,2288,2456,15368,103,192,251
194090217,904,2004,17464,131,61,79
194092092,488,1400,17316,96,-246,49
194093985,1448,2888,17196,250,-302,-69
194095991,3700,2328,16444,60,-40,263
194097792,3004,964,16512,74,-263,55
194099522,2016,1800,17632,147,-422,-122
194101331,2280,3120,16776,8,-493,167
194103176,2496,1092,15936,-67,-340,140
194104932,3300,540,17036,138,-280,-211
194106622,3932,1456,16316,154,-289,-281
194108302,4908,2884,15048,125,-276,-97
194109978,3796,2036,15980,-94,-114,63
194111653,4344,860,14076,-63,170,5
194113325,2840,1204,16492,199,49,-580
194114998,2952,3712,16452,18,-104,-133
194116696,3104,2180,15720,-60,-32,105
194118404,2704,1096,16396,160,-21,-361
194120116,4276,2616,16936,179,-20,-408
194121827,4132,2892,16200,102,-89,-172
194123539,3372,2804,17128,81,-98,-19
194125250,2308,864,16036,149,-77,-18
194126959,3496,2940,16968,315,-111,-369
194128708,3896,3520,16680,166,-158,115
194130467,3628,1380,15308,128,41,86
194132189,5176,2364,15852,259,-2,-28
194133912,4504,1892,15492,109,12,154
194136487,3192,2112,16220,143,364,9
194138168,3084,1556,15368,0,148,217
194139835,2668,864,15844,205,103,-132
194141563,3360,1984,16056,236,69,-309
194143268,3008,2408,17164,-5,36,348
194144938,2188,692,16632,148,-41,-206
194146629,2616,788,16004,226,-113,-260
194148320,2964,1952,17936,255,88,-380
194149995,3504,2888,16848,70,91,-119
194151681,3248,2772,16176,29,89,-24
194153366,2376,636,17940,183,241,-107
194155063,2312,748,17556,251,71,-174
194156756,2176,1064,16664,225,-100,-216
194158430,1912,1952,16572,319,-6,-285
194160093,2256,1628,16152,210,53,69
194161777,2260,768,15524,315,-42,-116
194163454,4256,3700,16436,323,-55,-566
194165121,3688,3444,15156,-76,47,306
194166838,2128,436,16644,273,155,-218
194168537,2916,540,15996,343,32,-314
194170274,2608,1212,16804,247,-60,-415
194171994,2448,3128,16716,342,324,-166
194173751,2072,3212,16672,265,246,-1
194175469,1952,2088,16336,215,-60,-109
194177212,3580,4052,17496,225,260,-269
194178935,2648,2852,16332,29,128,435
194180652,1384,1368,16764,130,90,277
194182362,960,1500,17316,286,-205,-161
194184084,2248,2324,16708,176,-402,-141
194185801,2632,2820,16200,146,-329,-20
194187576,3752,1968,15536,129,-93,-70
194189284,5192,2124,15816,27,-182,-149
194190988,4000,1564,15752,8,-137,-97
194192687,4108,2096,14840,41,-1,-174
194194390,2400,1848,15956,5,253,-144
194196149,2540,2120,16360,124,166,-390
194197969,3324,2504,15840,42,-47,-160
194199656,3016,2452,16432,73,-148,-155
194201329,3712,2836,16056,49,318,-9
194202993,2336,500,16560,85,32,-52
194204662,2124,628,17244,182,-118,-309
194206330,2832,2968,16648,167,-181,-312
194208072,3184,3172,16200,150,-125,-9
194209792,3476,2496,16340,81,23,156
194211524,3684,752,16880,-22,-88,-77
194213243,4256,1812,15824,83,-175,-250
194214982,3832,2804,15928,163,158,-143
194216710,3612,2868,16124,30,97,-55
194218519,2584,1680,16240,-237,62,31
194220255,3908,2208,15180,31,194,-519
194221955,4160,2980,15252,-113,156,-17
194223645,3200,1484,15880,-110,292,134
194225336,3504,1144,15676,119,130,-479
194227064,2880,2176,16704,8,-86,-118
194228836,2864,2160,15164,123,199,-106
194230561,2904,2888,17172,241,345,-66
194232267,2528,1684,17644,58,16,245
194233972,3196,2268,16696,212,63,-148
194235679,3652,3128,16704,219,239,65
194237389,2288,1652,16812,161,118,429
194239163,1716,668,17060,207,-96,2
194240849,2104,600,17736,132,-221,-87
194242542,3308,1872,14688,140,-32,-98
194244255,4056,2860,15396,195,-9,-207
194245952,4700,2380,16960,-208,-115,112
194247635,4276,1340,15760,-272,-20,141
194249381,3380,660,15024,115,-27,-341
194251044,2588,3176,16840,69,-52,-326
194252707,3552,2740,15296,-97,165,-26
194254361,2868,1636,16820,48,233,-185
194256084,3344,2644,16172,146,-16,-155
194257766,3428,2584,16208,162,62,-49
194259482,2320,2868,17496,140,327,41
194261148,1272,2000,16924,82,-21,104
194262821,1152,2172,17132,161,-162,-141
194264495,2936,4028,16540,123,18,69
194266164,2716,2952,17624,-7,-31,322
194267840,3136,1768,17144,-106,-245,346
194269563,2512,-424,15932,-76,-402,-36
194271259,2636,2268,15824,187,-156,-483
194272969,2900,3808,16764,-155,-269,209
194274678,2960,2568,15056,-366,-332,386
194276386,3292,680,16200,-55,-109,-316
194278093,5292,3668,16484,-37,15,-307
194279831,5096,3596,15760,-338,68,161
194281570,1744,1096,17584,-197,236,-125
194283293,1288,1960,17316,-8,28,-175
194285011,1608,2680,15508,-35,-157,-150
194286727,1160,3036,16776,6,-56,-30
194288435,1948,2440,18036,-76,-192,112
194290157,2920,1776,16452,-46,-408,32
194291900,2356,2368,16760,-37,-596,-88
194293609,3144,2704,16264,-45,-140,100
194295323,3432,1676,16428,-243,-297,52
194297154,2812,-148,15612,-195,-192,-158
194298917,3380,832,15832,78,-140,-686
194300647,4612,4520,16372,-217,-188,-97
194302337,4736,1236,15256,-436,178,152
194303995,3336,568,15260,-268,97,-168
194305680,1708,684,16424,-133,53,-342
194307855,1920,3160,16664,-95,-248,-481
194309517,2384,3164,16816,-324,-244,13
194311179,2856,980,15996,-151,-160,-102
194312864,3328,1336,17096,-1,-227,-428
194314557,3780,2736,17332,-150,-188,-161
194316274,3256,3152,16416,-255,-81,-192
194317989,2908,3288,16604,-273,50,-104
194319688,2304,2552,16892,-288,-60,-135
194321479,2900,2160,16144,-391,-12,-211
194323189,3344,2496,17068,-302,-227,-252
194324907,4936,2340,14212,-315,-151,-76
194326623,3096,376,16024,-281,-98,-20
194328378,2708,1884,16608,-122,207,-339
194330119,3104,1896,15372,-230,-158,109
194331907,2496,824,16304,-128,-266,-16
194333607,3920,2628,15800,-54,-39,-426
194335294,4788,2384,16508,-260,104,113
194336983,3988,1440,17300,-206,-48,30
194338672,4764,416,14924,20,-1,-187
194340358,2420,1160,16424,-137,-171,-185
194342153,1716,2740,17560,81,212,-391
194343900,3088,4204,17284,-65,-137,-315
194345601,3824,2964,16264,-329,102,167
194347266,4412,2088,16376,-263,263,97
194348930,3140,988,16392,-310,3,256
194350605,1620,380,18000,-116,-172,-322
194352365,3800,1852,14816,-63,70,-316
194354204,3960,2384,14588,-76,63,13
194355996,3732,1676,15480,-15,239,54
194357760,4480,1812,17352,-95,-194,-283
194359451,3956,1716,15644,-10,148,87
194361136,2904,1936,15396,132,279,-38
194362893,2160,2460,16952,26,312,-66
194364573,2308,2676,16424,-219,-30,95
194366247,3848,2312,16316,153,294,-89
194367917,3916,2776,17404,21,24,-18
194369586,2456,604,16868,-125,381,279
194371255,1456,1964,17312,-2,5,-231
194372982,1432,2576,16948,27,-127,-198
194374689,2080,4220,17376,-136,-231,174
194376404,1640,220,17128,-292,55,408
194378115,3960,1896,16312,-54,-353,-511
194379833,4864,2892,16400,-126,-303,-245
194381558,3636,2272,15124,-204,-80,124
194383299,1572,1248,16384,-179,167,-1
194385009,1636,968,17540,-199,-153,-235
194386717,2228,1948,15744,-164,-154,-274
194388424,3788,1972,14332,-24,181,-56
194390136,4628,2028,18184,-92,173,-276
194391851,3932,2516,17612,-374,-94,-69
194393642,2032,340,16052,-82,265,-242
194395339,2460,3716,17292,5,192,-370
194397055,1220,3424,17964,-336,1,61
194398810,328,1604,18008,-372,-323,-229
194400520,2712,1532,16492,-108,-293,-256
194402204,4368,2528,14848,-139,-423,-425
194403965,3684,3272,15616,-306,-247,-202
194405673,3352,1924,16780,-389,-250,-66
194407347,3788,1940,14924,-143,-167,-336
194409018,3744,2584,15344,-182,-30,-308
194410688,4168,2452,15916,-256,390,-72
194412357,3644,1528,16056,-300,-17,36
194414120,4524,1116,14484,-92,92,-169
194415837,4264,3824,15716,-85,359,-160
194417556,1844,2152,16072,-307,452,391
194419293,1936,2084,17152,-279,-168,-61
194421023,2488,1620,16276,-287,-118,21
194422740,3180,2092,15784,-177,-112,-250
194424450,3416,3304,17832,-294,28,58
194426149,4448,1548,16912,-444,-106,266
194427841,3132,-188,17936,-330,-337,-247
194429573,4232,1160,14908,-117,78,-348
194431296,3764,2852,16672,-135,185,-159
194432997,3536,2160,17268,-355,-37,142
194434787,3408,472,14344,-178,21,-326
194436487,5388,3392,14112,-112,40,-221
194438174,5300,2508,13844,-174,354,165
194439875,4460,368,15224,-86,355,-210
194441563,4116,952,16000,30,247,-201
194443301,3148,2620,15124,112,469,-255
194445038,3012,3352,16072,88,622,-214
194446761,2688,3804,19228,-145,419,44
194448451,2912,1388,16804,-164,176,174
194450116,1900,1404,18300,-44,-8,-119
194451786,2272,2348,16988,-101,315,31
194453453,2284,944,16360,-212,-53,80
194455115,2096,904,16860,-196,-219,-75
194456831,3252,1352,15920,-90,-80,-349
194458522,3704,2892,16360,-93,132,-31
194460252,3112,1872,15936,-187,-13,114
194461965,2820,1740,15912,-204,-59,-16
194463673,3132,1628,16496,-151,108,-122
194465382,3872,2288,16168,-102,493,-74
194467160,3564,2448,17172,-143,291,-83
194468860,2868,1896,16904,-155,255,29
194470554,2316,904,15620,56,259,-49
194472250,1748,1224,16300,60,230,-139
194473939,1360,1680,17064,-65,256,-122
194475629,1164,1448,17632,-6,-22,17
194477378,1560,1648,17568,84,-383,-104
194480332,3156,2116,17828,-212,171,-55
194482117,2984,1008,17492,-157,113,3
194483835,2056,1072,17752,-12,-378,-260
194485543,1928,624,15924,-21,-147,-448
194487251,2328,1668,16460,34,96,-591
194488960,2164,2280,16796,3,-109,-63
194490660,3668,2272,15380,111,-378,-295
194492350,4640,2908,16104,-68,17,-10
194494031,3272,2556,15512,-149,-3,136
194495711,1896,836,16236,177,156,-209
194497390,2680,3688,17056,138,-110,-293
194499105,2436,3840,16380,-104,-75,133
194500836,2056,1688,17168,89,-40,116
194502523,2772,1684,17288,63,-128,-72
194504184,3744,1588,17280,107,-174,-134
194505837,2744,3288,17840,19,-184,10
194507489,2020,1308,16696,-152,-246,296
194509199,1832,464,17740,-91,-399,-55
194510883,3136,1724,15676,-34,-285,-231
194512574,4296,1860,15696,81,-214,-94
194514267,3920,1820,16948,10,-267,-5
194515960,4676,1128,14560,-101,-272,1
194517690,4972,2088,14928,230,-168,-374
194519439,4532,2844,16160,-9,-89,193
194521144,4372,1720,15032,-85,5,220
194522851,3716,2008,15768,24,82,-240
194524558,4328,2416,15572,170,274,-45
194526266,4128,2156,15996,177,210,-32
194527970,3260,2044,17480,61,181,70
194529708,2484,732,16028,95,31,26
194531442,2488,2368,16516,310,-10,-307
194533209,2508,3328,16732,249,22,-15
194534956,3192,2088,16396,32,7,336
194536681,3672,1424,16672,91,-302,62
194538443,4048,1756,16464,188,79,47
194540174,4316,1972,16100,253,215,24
194541884,3044,1704,16884,190,-13,422
194543575,2852,996,15296,224,11,-35
194545281,2804,1756,16124,179,-8,-36
194546968,3504,2300,15556,284,385,216
194548629,4812,2340,15632,120,112,180
194550300,4112,1560,16616,-6,42,312
194551972,3056,420,15572,149,189,50
194553670,2204,1084,16180,420,112,-106
194555339,1548,1832,17292,346,60,-171
194557012,3180,2104,16752,52,18,83
194558682,2904,952,16588,272,90,-42
194560404,3080,1672,17172,380,46,-320
194562100,2916,2616,17372,157,-243,81
194563805,1424,476,16568,167,27,31
194565514,2820,2548,16152,240,-153,-427
194567225,3220,2704,15872,95,-122,-126
194568935,3548,1864,15752,309,322,-375
194570668,3940,3072,17472,95,-109,-23
194572379,3640,1204,15960,-26,-176,288
194574087,1852,472,15244,290,-55,-465
194575793,2148,2360,17000,450,183,-438
194577501,2164,3116,17028,139,-437,133
194579211,2524,1792,15892,105,-422,228
194580945,4140,2208,15548,296,-228,-478
194582656,4092,2668,17008,102,222,71
194584363,2832,1904,16432,130,66,-55
194586069,2320,3052,16776,97,-212,-130
194587777,1524,1664,16984,152,-43,-182
194589486,1896,2008,16004,188,185,-87
194591201,1556,1176,17240,292,41,-117
194592908,4596,3408,16348,286,-282,-359
194594603,2364,4380,17744,-98,-308,329
194596294,3660,2788,13404,-98,-265,422
194597982,828,1764,17668,276,118,-143
194599682,2616,2204,17136,255,-158,85
194601436,2532,2296,16756,250,-424,92
194603141,3388,2916,15584,291,-417,120
194604800,5444,1688,15444,323,-7,294
194606481,3668,2160,17796,165,-118,227
194608205,4756,1064,15664,36,-244,417
194609934,2408,1700,16796,190,-160,-76
194611639,3636,1828,14396,107,187,272
194613353,2324,736,16212,175,155,181
194615119,3688,1492,16836,104,-68,-196
194616924,5488,1788,15348,76,-169,-220
194618766,3900,2004,16268,83,74,-118
194620566,2560,1236,17332,89,79,-139
194622382,2172,1456,17504,23,-126,-355
194624075,3000,3280,16404,34,-171,-353
194625762,3392,2736,15656,-2,53,22
194627442,3404,1320,16496,67,29,-63
194629116,5164,1968,16840,175,-10,-414
194630799,4852,1940,14976,-7,-136,-151
194632495,4240,1672,14556,138,85,-167
194634214,3376,2964,16232,157,285,-294
194635958,2964,1132,16192,-108,180,54
194637706,2744,1600,17728,250,75,-611
194639435,3924,3292,16568,122,-67,-418
194641184,3316,744,15668,-7,204,87
194642990,4096,1720,16440,186,217,-595
194644699,4344,1052,16516,4,200,-179
194646422,2588,1268,16696,52,164,-276
194648112,2320,2400,15856,112,66,-326
194649768,2496,1844,16908,200,3,-396
194651932,3360,2212,15936,140,-12,-213
194653669,2952,2548,16388,182,32,-204
194655344,3412,2260,15784,267,39,-289
194657029,3304,3348,16844,240,240,-167
194658711,3060,2424,16156,67,256,110
194660404,2980,1804,16412,170,263,-77
194662102,3236,2040,16272,97,332,11
194663849,2740,-96,15792,286,392,-276
194665555,2732,2404,16964,217,62,-308
194667272,2440,2220,16520,113,18,-110
194668983,1892,1520,15900,117,388,-266
194670705,1964,1288,16880,174,65,-405
194672422,1876,1960,17384,167,-52,-525
194674159,2684,2272,16896,12,-147,-171
194675871,2280,1612,17028,112,26,-429
194677581,1928,2016,16108,164,-141,-425
194679293,2024,1936,16604,250,-138,-533
194681024,3392,4148,16140,175,-74,-332
194682756,2460,2548,15864,-9,-102,27
194684512,2604,1936,15500,69,42,-149
194686231,3500,2580,15752,349,185,-379
194687966,4268,4280,16388,209,-36,62
194689803,3160,2796,16156,33,134,336
194691610,2312,1696,15968,126,312,155
194693420,1764,1076,17464,257,146,54
194695197,2696,2880,16352,227,-177,-112
194696905,3028,3092,16796,-57,-168,320
194698580,2800,2140,16692,-126,-92,445
194700272,2812,644,16340,91,-199,-58
194701980,3916,2552,16916,44,-304,-187
194703729,3332,2164,16772,-169,-193,283
194705445,3232,1564,15508,-116,-132,158
194707116,3268,1684,16688,19,-164,-175
194708777,3532,2588,16132,-140,-89,-33
194710437,3576,2172,15992,-124,-46,42
194712096,3492,2296,16136,-10,99,-123
194713750,3632,2080,15956,-116,-77,2
194715410,3316,1560,15872,-61,-16,-4
194717107,3740,2244,16496,36,126,-224
194718815,3180,1548,15732,-129,49,6
194720521,2036,1376,16732,-37,44,-275
194722287,3100,2872,16960,-44,64,-248
194723993,2864,1664,16320,-89,-194,-75
194725805,2808,2796,16792,-120,-184,-213
194727519,3264,2572,16272,-258,-154,-48
194729229,4572,2412,16568,-148,-81,-435
194730969,4148,2740,15956,-339,-123,78
194732718,2684,1448,15596,-233,125,-274
194734438,2104,2016,17420,-184,-63,-339
194736148,3136,2076,15860,-234,-30,-197
194737837,3404,1380,15736,-121,67,-208
194739511,2632,1560,16956,-86,47,-241
194741181,3448,2808,16404,-102,-151,-302
194742863,4936,3744,15664,-166,-166,-47
194744577,4844,3328,15384,-245,198,97
194746367,3356,1428,16260,-235,-51,198
194748116,1672,536,16776,3,-110,-74
194749820,2596,2336,16696,32,-11,-243
194751488,2768,2568,16436,-148,-120,63
194753159,3208,632,15764,4,188,24
194754822,4644,2276,16788,-46,13,-309
194756547,4548,2228,17012,-226,2,-35
194758230,3800,552,15356,-47,212,-164
194759921,2732,1188,16000,-50,-40,-332
194761617,2408,888,16096,-62,139,-293
194763315,3192,2344,15772,-40,67,-541
194765008,3548,2176,16764,13,32,-302
194766760,3512,2600,16196,-119,-161,-162
194768508,3020,1556,16432,-96,96,-149
194770223,2384,3624,16416,48,-158,-511
194771932,3156,4600,15692,-156,-228,-36
194773639,3712,3788,15440,-169,27,-30
194775349,4112,2284,15212,-189,146,226
194777083,2888,1052,16836,-1,-185,-102
194778791,2572,1752,15724,26,78,-139
194780500,2780,2440,15892,84,346,-143
194782207,2376,3416,15760,-138,163,382
194783919,1820,1456,17600,-150,-80,152
194785630,3168,1704,17264,-124,-155,9
194787382,4960,1616,15692,-98,303,65
194789109,3092,1936,16940,-266,52,187
194790840,152,1164,18488,-242,-277,36
194792586,692,1492,16888,-211,-453,-147
194794310,2128,2456,16384,-68,-270,-130
194796060,2756,2076,16588,-211,-165,277
194797855,4180,680,16072,-85,-327,-145
194799532,4388,2108,16472,-3,-310,-333
194801190,4092,3660,15012,-100,-320,104
194802847,2944,1756,15836,-158,112,244
194804575,2892,1092,15968,-153,160,30
194806290,3180,1828,16124,-157,-173,-188
194808055,4144,3424,15664,-22,-86,-184
194809719,5088,3616,14592,-130,108,98
194811386,3632,984,16136,-290,273,188
194813051,3080,836,17056,-150,-17,-333
194814712,3280,1712,16124,-129,62,-317
194816424,2592,3084,16560,-171,-52,-62
194818166,1752,2220,17148,-305,14,60
194819868,2532,2524,16804,-232,-179,-150
194821576,2976,2440,17620,-194,-249,47
194824521,3848,2112,16472,-283,-351,50
194826274,3320,2972,16680,-278,-91,-109
194827990,3784,2696,15512,-305,-210,165
194830032,4268,2072,14364,-266,-213,143
194831788,4596,1200,14408,-277,216,244
194833509,4344,-712,15436,-160,3,-10
194835199,4472,324,15404,120,56,-480
194836879,4504,3964,15840,-27,340,-180
194838559,3776,3352,15892,-250,369,217
194840244,2388,1564,17900,-218,184,-206
194841998,3460,2196,16292,-355,111,-149
194843740,2820,1704,16960,-299,129,-212
194845459,3800,2796,16680,-143,456,-279
194847246,2752,392,16760,-439,-168,180
194848999,1792,208,16568,-46,-15,-718
194850706,2780,2652,16092,56,16,-785
194852386,3676,3024,15872,-221,259,94
194854070,3712,1412,16824,-227,153,-216
194855748,4124,2148,16360,-239,111,-264
194857418,3092,2048,16660,-121,66,-56
194859089,2632,1620,15624,-18,407,101
194860823,2036,1124,17260,-86,278,-50
194862524,2348,1580,16600,-154,56,-119
194864234,3376,1948,16152,66,75,-197
194865992,4232,2672,16608,-35,317,-90
194867810,2708,1280,16308,-283,1,132
194869808,2072,800,16268,-116,99,-213
194871662,2812,3192,16272,-35,-75,-372
194873390,2716,2528,15816,-222,225,-24
194875084,3272,2700,17348,-188,3,-124
194876771,3964,2196,16280,-268,-7,0
194878435,3264,1324,16132,-173,-66,-149
194880130,2116,2792,16588,20,273,-211
194881884,1924,3180,17240,-67,26,-107
194883586,2872,2408,16448,-191,-103,233
194885298,3040,1268,16076,62,9,58
194887006,4420,2184,15308,71,39,-1
194888715,4492,2944,16560,8,137,34
194890452,4264,1880,14892,-309,-45,437
194892217,2612,208,15964,-48,-155,-183
194893985,2468,1972,16772,-56,35,-189
194895714,3352,2064,16436,-185,38,-118
194897413,2904,692,16828,-240,-72,-31
194899109,3356,1568,15736,-65,-231,-456
194900803,4888,2512,15284,-85,57,-521
194902526,3192,3912,16884,-389,46,-39
194904226,2132,2096,16004,-299,208,-21
194905917,2452,1628,17256,-223,-69,-265
194907609,2116,2960,17372,-196,184,-124
194909305,3072,2352,15860,-145,459,160
194910997,3356,2208,17072,14,18,-127
194912689,4356,2644,16832,-46,59,62
194914453,3072,1836,14948,-108,258,299
194916163,1880,2240,17988,36,173,157
194917873,2044,2152,17052,-181,-71,342
194919584,1984,312,15280,-261,-293,27
194921295,3268,2016,16756,37,38,-141
