Time_us,Accel_X,Accel_Y,Accel_Z,Gyro_X,Gyro_Y,Gyro_Z
3566834446,2800,1380,16824,-23,-46,-213
3566836338,3136,724,16500,-100,-14,81
3566838070,4388,936,16588,-93,62,28
3566839799,3936,180,16536,-114,-44,47
3566841584,3884,-32,16164,-63,-52,-58
3566843475,4012,1048,16108,-42,70,-133
3566845227,3940,824,16088,-146,52,9
3566846915,3920,872,16116,-193,98,-107
3566848592,3916,776,15860,-154,94,-77
3566850270,4096,720,16132,-99,45,-159
3566851948,4320,368,16724,-134,65,-76
3566853676,3980,164,16176,-41,182,-212
3566855410,3692,576,16152,-24,152,-237
3566857133,3852,1220,16284,-40,-39,-121
3566858898,3844,1144,16276,-129,72,57
3566860672,4240,380,15732,-63,67,48
3566862405,4156,488,16064,-63,32,-121
3566864138,4316,940,15752,-155,61,-61
3566865845,4664,852,16076,-127,164,-17
3566867543,4604,564,15928,-153,162,44
3566869237,4324,-640,16144,-134,195,-33
3566870937,3724,-412,16472,27,290,-236
3566872635,3984,492,16480,71,137,-276
3566874327,3964,1212,16432,26,86,-228
3566876074,4320,1292,16076,-51,195,-19
3566877791,4084,940,16104,-2,210,-104
3566879493,3916,900,16144,-24,108,-88
3566881194,3844,1044,16172,-75,103,-116
3566882890,3808,1252,16344,-112,219,124
3566884661,3720,-80,16116,-101,120,113
3566886374,3776,-264,16456,-62,75,-50
3566888100,4384,64,16432,2,212,-125
3566889814,4452,512,16400,71,255,-178
3566891525,3284,264,16612,-11,165,-151
3566893237,3108,492,16116,4,212,-215
3566895061,3172,1252,16164,42,128,-125
3566896766,3660,920,16276,3,49,-8
3566898461,3852,1024,16412,-38,65,-29
3566900175,4048,316,16360,-51,128,109
3566901932,3728,836,16216,23,44,-153
3566903708,3832,1224,16848,-146,118,34
3566905513,4068,472,15992,-36,130,127
3566907213,3916,-164,15892,-4,90,138
3566908910,3844,-1856,15984,144,86,-158
3566910638,3944,312,16572,204,259,-410
3566912402,3364,1164,16480,196,104,-235
3566914139,3932,2420,16124,30,90,-60
3566915871,4296,2296,16304,-146,174,88
3566917568,3420,912,16248,-81,60,91
3566919262,2976,-120,16540,-64,-44,17
3566920955,3332,184,16748,-35,13,-156
3566922647,3492,860,16408,-59,61,81
3566924339,3904,388,16004,-30,-11,175
3566926104,5048,-96,15944,17,72,-117
3566927815,4168,336,16116,48,173,-334
3566929531,2960,1920,16340,89,82,-290
3566931241,2920,2288,16352,-34,68,-151
3566932947,3460,1492,16436,-141,5,136
3566934655,4436,44,16232,-63,106,102
3566936389,4580,-56,16732,-57,105,-197
3566938141,3920,868,16568,-136,-163,-62
3566939853,3184,588,16140,-62,50,-64
3566941560,4024,1364,15968,-118,76,49
3566943265,3956,628,16280,-205,19,87
3566944971,4128,340,15752,-107,44,-143
3566946706,4564,1244,16080,-104,105,-82
3566948414,4264,352,16128,-140,85,-32
3566950120,4148,-20,16252,-130,143,-125
3566951865,3544,524,16360,17,193,-277
3566953641,3692,1044,16596,-69,-6,-99
3566955405,3512,644,16652,-83,-49,-33
3566957234,3820,800,16404,-46,35,-51
3566958957,4220,1228,15716,-77,3,-40
3566960699,4948,1144,15524,-164,10,14
3566962398,4984,540,15744,-232,235,128
3566964100,4636,-172,15644,-184,254,127
3566965795,4092,-472,16024,-62,195,-223
3566967567,3776,-444,16344,21,223,-183
3566969277,3748,-8,16640,80,272,-248
3566970986,3512,900,16632,36,114,-127
3566972695,4172,1604,15948,4,82,-149
3566974403,4344,1064,16036,-75,180,17
3566976140,4284,956,16088,-37,151,-75
3566977870,4068,1464,15968,-127,69,0
3566979577,3540,416,15812,-140,149,96
3566981287,3688,32,16052,-86,218,92
3566982996,3764,-172,16540,-46,118,-25
3566984710,4516,-192,16208,-4,173,-68
3566986422,4560,464,16524,52,383,-203
3566988132,4068,696,16556,65,249,-197
3566989861,3196,1152,16652,-8,116,-189
3566991572,2960,856,16564,-1,148,-88
3566993274,3316,1228,16264,15,130,-81
3566994970,3640,876,16300,-112,28,119
3566996664,4232,52,16208,-64,119,-13
3566998462,3972,300,16272,-2,69,-80
3567000197,3548,444,16432,-1,14,-101
3567001918,3660,1024,16608,-63,102,1
3567003640,4044,144,16088,34,140,125
3567005350,4048,-600,16036,100,132,-156
3567007965,4232,544,16184,100,196,-288
3567009736,3228,972,16316,86,184,-101
3567011445,3136,1556,16360,10,-27,-39
3567013141,3656,1644,16520,-91,8,-13
3567014844,3880,1208,16044,-84,83,87
3567016543,3856,412,16468,-16,35,16
3567018234,3972,388,16276,-56,5,-18
3567019931,3876,244,16424,-57,89,-8
3567021638,3604,368,16376,67,109,-111
3567023347,4156,540,15984,-1,-40,-87
3567025054,4500,964,15688,-51,89,-144
3567026761,4264,1228,16100,6,232,-117
3567028468,3352,1000,16520,11,39,-188
3567030232,2896,1404,16488,-98,15,-43
3567031943,3636,924,16580,-83,23,84
3567033650,4232,776,16716,-91,68,-18
3567035356,3768,300,16416,-172,-111,-11
3567037104,4124,552,15976,-119,-32,-108
3567038812,3972,980,15856,-72,86,-21
3567040542,3812,564,16236,-149,66,-80
3567042250,3968,880,16168,-161,83,-125
3567043957,4088,892,15728,-86,62,-61
3567045691,4332,448,16220,-128,57,-26
3567047400,4448,-160,16552,-99,125,-197
3567049108,4084,196,16136,-47,222,-285
3567050838,3572,948,16168,-17,78,-165
3567052546,3856,1308,16340,-101,-2,-83
3567054253,3740,696,16200,-143,67,91
3567055957,3828,236,15976,-76,69,68
3567057687,4284,760,15848,-71,16,-137
3567059394,4564,952,15728,-180,74,4
3567061123,4660,880,15728,-164,162,24
3567062832,4524,88,15964,-145,142,92
3567064540,4076,-736,16296,-59,236,-231
3567066245,3744,-84,16776,65,255,-234
3567067951,3684,224,16448,110,163,-201
3567069657,3660,1504,15984,17,126,-197
3567071385,4356,1408,15928,-56,222,7
3567073093,4612,1308,15952,-59,243,-45
3567074800,4272,924,16100,-113,106,14
3567076506,3692,432,16132,-79,143,-109
3567078214,3492,880,16188,-39,183,24
3567079920,3584,424,16436,-57,88,132
3567081648,3900,-64,16368,-56,95,-2
3567083390,4344,32,16048,11,217,-112
3567085100,4448,840,16108,24,247,-213
3567086807,4008,744,16356,-21,221,-153
3567088511,3096,640,16404,-5,275,-240
3567090218,2732,1100,16772,-12,83,-56
3567091949,3188,852,16448,-16,31,13
3567093656,3976,828,16236,-54,121,98
3567095364,4448,132,16172,54,159,-35
3567097071,3764,808,16248,-15,4,-39
3567098782,3516,784,16480,-58,7,-13
3567100496,3848,1412,16476,-94,254,12
3567102230,4092,132,15568,-18,78,174
3567103937,3940,-788,16076,61,26,76
3567105647,3916,-1052,16420,149,180,-314
3567107356,3492,580,16588,125,139,-299
3567109061,3212,2336,15992,52,48,-12
3567110770,3580,1992,16460,-72,36,111
3567112503,4116,1752,16600,-91,128,-83
3567114211,3592,572,16552,-92,-33,80
3567115920,3560,180,16228,-19,-16,-13
3567117626,3552,428,16320,-57,81,-24
3567119332,3580,228,16152,-12,50,-3
3567121041,4460,496,16148,-28,38,18
3567122771,4812,104,16036,-20,74,18
3567124477,4116,528,15980,100,171,-354
3567126184,3148,1840,16220,36,47,-274
3567127890,3104,2052,16396,-52,44,-139
3567129595,3508,1444,16372,-113,76,133
3567131314,4296,116,16376,-106,30,37
3567133044,3948,628,16676,-166,-73,-89
3567134749,4068,268,16128,-121,-29,9
3567136454,3668,892,15724,13,71,-179
3567138161,4084,1300,15812,-152,96,28
3567139871,3828,752,16336,-153,128,-48
3567141578,4004,1120,16016,-68,72,-92
3567143308,4508,956,16140,-148,8,-55
3567145016,4252,224,16292,-192,184,14
3567146720,3948,-528,16308,-84,197,-50
3567148428,3596,-60,16376,25,102,-349
3567150134,3580,972,16548,-48,10,-175
3567151838,3460,836,16412,-38,68,-48
3567153568,3836,1080,16116,-57,-23,-1
3567155276,4340,872,15456,-147,-55,-60
3567156982,5168,1872,15512,-192,221,-37
3567158690,5168,1132,15652,-191,246,160
3567160402,4304,-712,16176,-185,133,27
3567162111,3660,-1104,16524,-73,231,-168
3567163939,3808,-88,16580,145,245,-304
3567165712,3668,448,16636,102,133,-168
3567167418,4192,936,15908,42,113,-191
3567169122,4712,1884,15976,-57,241,-22
3567170828,4432,1248,16148,-24,172,48
3567172524,3552,1084,16328,-52,85,-145
3567174235,3256,1136,16272,-168,135,-17
3567175948,3528,688,16372,-96,154,90
3567177653,3836,256,16256,-118,79,182
3567180281,4976,-488,16008,10,296,-185
3567182012,4328,-8,16544,104,305,-262
3567183721,3768,456,16296,126,229,-307
3567185441,2584,1392,16544,-39,206,-171
3567187152,2884,1444,16444,22,149,-65
3567188849,3344,1620,16300,-15,57,13
3567190547,3896,504,16336,-93,55,82
3567192244,4412,820,16484,-66,191,-100
3567193932,3300,432,16356,-59,-52,83
3567195638,3208,296,16244,-53,-35,42
3567197360,3740,372,16188,-77,118,10
3567199067,4264,-772,16092,99,104,80
3567200779,4544,-944,15960,160,92,-59
3567202492,4420,-60,16024,134,215,-404
3567204419,3648,1824,16052,97,264,-224
3567206246,2904,1676,16544,-3,9,17
3567207978,3404,1728,16804,-147,39,25
3567209698,3392,976,16420,-138,78,114
3567211388,3724,380,16136,46,-5,25
3567213074,3912,388,16368,-57,-48,10
3567214757,3980,368,16248,-59,64,-6
3567216447,3744,520,16144,21,118,-23
3567218141,4040,96,15996,29,-32,-15
3567219833,4020,736,15920,28,193,-306
3567221524,3936,1468,15944,57,223,-319
3567223217,3680,1720,16352,-13,53,-112
3567224909,3320,1008,16628,-105,16,-43
3567226610,3644,564,16588,-99,79,-7
3567228319,4116,992,16488,-113,94,-119
3567230024,3836,512,16252,-132,-69,85
3567231732,3680,328,16520,-104,-27,-54
3567233439,3948,1068,15876,-63,56,20
3567235171,3744,532,16236,-100,13,-67
3567236882,4120,968,16068,-146,66,-105
3567238591,4096,892,15948,-136,77,-66
3567240298,4332,596,16152,-122,45,14
3567242004,4440,20,16328,-101,71,-144
3567243714,4380,264,16256,-78,187,-246
3567245446,3776,840,16256,-5,165,-206
3567247154,3884,1068,16524,-81,-3,-131
3567248861,3800,948,16220,-161,40,23
3567250568,3580,344,16144,-110,54,68
3567252277,4108,636,15996,-76,10,-102
3567253988,4344,840,15832,-162,19,3
3567255720,4772,932,15728,-135,190,13
3567257429,4724,600,15868,-121,169,44
3567259139,4332,-612,16396,-60,164,-91
3567260850,3960,-272,16512,-6,256,-206
3567262557,3616,-208,16652,75,226,-251
3567264264,3832,1456,16416,40,128,-163
3567265997,4028,1072,16260,-70,127,24
3567267706,4400,1104,16320,-27,199,-110
3567269412,4576,1200,16104,-53,159,-122
3567271122,3888,828,16052,-95,127,-32
3567272829,3528,652,16016,-92,207,22
3567274536,3360,100,16288,-87,109,77
3567276248,3732,212,16504,-59,89,-35
3567278009,4312,-12,16264,-29,203,-14
3567279808,4404,584,16260,53,231,-215
3567281599,4144,776,16256,30,217,-161
3567283336,3572,744,16240,-14,225,-175
3567285035,3032,908,16460,12,204,-51
3567286814,3128,1036,16260,-8,50,-50
3567288509,3328,1100,16456,-55,35,39
3567290196,3984,-76,16524,2,96,122
3567291881,4088,408,16448,27,81,-118
3567293563,3832,624,16292,-6,17,-116
3567295242,3604,964,16416,-9,137,-103
3567296975,3956,1088,16268,-46,148,70
3567298677,4220,-268,15996,19,57,-14
3567300387,4104,-396,16068,65,127,-164
3567302097,3876,-328,16340,151,219,-288
3567303804,2992,1572,16312,107,63,-261
3567305536,3192,1900,16508,27,38,-48
3567307271,4076,1944,16052,-34,107,60
3567308991,3892,1288,16464,-79,39,44
3567310707,3928,720,16100,-59,-16,-14
3567312425,3808,732,16388,-97,62,-1
3567314134,3404,-8,16140,-31,74,73
3567315842,3228,84,16412,-27,26,-58
3567317579,3672,428,16140,-11,-22,-57
3567319288,4848,272,15876,33,92,-101
3567320996,4244,1072,15944,24,153,-330
3567322703,3100,1804,16596,-54,84,-237
3567324411,2600,1660,16684,-95,59,-78
3567326117,3680,828,16476,-92,7,103
3567327848,3988,1036,16456,-148,29,-44
3567329559,4264,164,16044,-85,-7,29
3567331267,4320,472,15788,-9,-12,-78
3567332975,3896,1144,15968,-94,28,-2
3567334685,4116,968,16084,-159,147,-67
3567336394,3860,1040,16140,-155,167,-67
3567338125,4032,828,15976,-115,62,-43
3567339838,4196,660,16420,-133,37,-126
3567341546,4040,-136,16192,-73,129,-36
3567343252,3932,-328,16200,-11,128,-167
3567344959,3704,504,16484,-20,35,-295
3567346665,3588,1232,16464,-90,31,-149
3567348396,3756,1272,16328,-95,56,-10
3567350104,4364,956,15664,-114,-2,28
3567352732,4772,1480,15896,-210,195,22
3567354453,4856,992,15756,-149,248,52
3567356168,4268,140,16304,-177,143,77
3567357879,3868,-1028,16380,-113,180,-33
3567359596,3800,-588,16652,67,249,-183
3567361318,3812,-344,16504,103,149,-174
3567363032,4164,832,16408,96,138,-273
3567364730,4732,1772,15960,-4,247,-117
3567366436,4488,1448,15752,1,246,-27
3567368136,3616,1348,16056,-90,133,-104
3567369900,3232,1024,16152,-148,111,-68
3567371615,3312,1028,16392,-127,142,115
3567373331,3664,288,16608,-144,51,254
3567375042,4592,-652,16008,-71,71,-5
3567376776,4880,-328,15996,55,343,-189
3567378503,3908,420,16204,149,287,-289
3567380289,3248,800,16440,84,209,-239
3567381997,2816,1064,16352,-10,184,-161
3567383701,3172,1736,16124,-5,125,35
3567385397,3536,1208,16192,-27,1,162
3567387094,4196,528,16776,-74,95,-64
3567388792,3788,792,16608,-52,111,-44
3567390549,3260,652,16708,-61,-18,48
3567392260,3384,380,16500,-116,-17,62
3567393977,4012,-652,15944,-40,129,41
3567395690,4288,-932,15964,162,144,-131
3567397441,4556,0,16112,178,152,-383
3567399157,4040,1044,16320,125,212,-413
3567400894,3296,1940,16448,74,215,-76
3567402602,3760,2400,16328,-41,63,-34
3567404353,3592,2060,16500,-138,64,70
3567406068,3632,316,16196,-68,88,77
3567407779,3580,320,16852,-27,-44,27
3567409494,3888,108,16200,-55,-16,13
3567411233,3976,240,16200,-32,103,-90
3567412944,4248,672,16196,48,46,-57
3567414657,4320,244,15996,1,7,-145
3567416380,3436,1032,15920,46,202,-324
3567418097,3432,1568,16036,63,190,-301
3567419815,3316,1896,16528,-88,-45,-29
3567421557,4288,260,16184,-128,77,83
3567423271,4084,384,16676,-94,199,-207
3567424985,3496,960,16808,-162,-99,5
3567426699,3576,844,16204,-48,-82,-99
3567428411,3936,1228,16264,-149,95,96
3567430124,4028,680,16220,-153,93,121
3567431862,4116,672,15948,-126,-6,-90
3567433573,4392,556,15620,-102,72,-29
3567435286,4292,460,15952,-98,142,-70
3567437001,4240,-32,16408,-117,76,-106
3567438712,3852,488,16640,-36,143,-359
3567440424,3508,800,16448,-57,87,-116
3567442161,3928,876,16372,-61,59,-153
3567443874,3820,1272,16456,-147,-8,-17
3567445586,3804,340,15912,-98,102,-26
3567447302,3964,704,15868,-78,94,-92
3567449014,4332,756,15900,-122,-3,18
3567450728,4624,828,15572,-146,157,35
3567452465,4612,192,15916,-110,228,7
3567454208,4716,52,16064,-91,218,-59
3567456106,3936,-288,16436,-12,211,-135
3567457903,3668,32,16516,54,247,-215
3567459700,3692,1060,16192,35,95,-190
3567461421,3812,1200,16188,-12,88,2
3567463174,4272,1188,15960,-35,157,-19
3567464937,4648,968,15972,-96,110,-117
3567466725,3948,1076,15988,-135,164,-91
3567468437,3480,72,16208,-64,191,56
3567470110,3372,-68,16228,-48,151,-63
3567471781,3424,560,16556,-69,123,-22
3567473525,4108,188,16364,42,221,-43
3567475236,4384,552,16252,61,225,-108
3567476979,4508,600,16308,1,181,-175
3567478737,3708,1216,16172,-48,256,-128
3567480458,2844,280,16460,20,121,0
3567482143,2928,376,16456,-9,54,-65
3567483921,3260,1068,16508,-66,64,-30
3567485723,4184,-76,16216,37,89,109
3567487450,4468,268,16556,2,71,-97
3567489145,4124,264,16688,-31,36,-94
3567490829,3596,1256,16316,-2,190,-175
3567492508,3948,912,15920,-3,70,69
3567494265,3864,0,16188,-10,113,-61
3567495969,3932,-300,16228,28,210,-82
3567497711,4096,-60,16284,176,173,-253
3567499426,3172,1196,16104,92,32,-170
3567501140,3124,1636,16416,50,56,-38
3567502853,4024,2064,16500,-21,97,87
3567504597,4172,1012,16224,-90,21,146
3567506309,3580,580,16208,-30,61,-106
3567508097,3808,820,16172,-36,111,-59
3567509892,3560,216,16208,-28,34,7
3567511883,3600,300,16496,-73,75,-77
3567513816,4244,304,15984,-7,100,-57
3567515640,4736,420,15868,-3,92,-163
3567517393,3572,1396,16272,13,120,-428
3567519075,2920,1900,16796,-35,130,-253
3567520736,3276,1092,16376,-46,-38,86
3567522395,3832,1052,16420,-79,-16,-60
3567524054,4060,1060,16520,-167,32,33
3567526215,4404,968,15924,-67,-26,-26
3567527908,4200,940,15884,-85,-2,41
3567529596,4076,288,15840,-156,152,-48
3567531279,4016,988,16048,-88,136,-191
3567532961,3972,1084,16128,-85,26,-118
3567534649,4224,860,16264,-185,59,-79
3567536336,4068,40,16352,-118,145,-55
3567538037,3892,-36,16228,-47,95,-152
3567539745,3836,396,16528,-29,34,-240
3567541455,4004,1124,16504,-61,113,-187
3567543164,3716,860,16264,-83,-18,71
3567544883,4012,608,15944,-69,-48,16
3567546605,4268,1144,15696,-132,33,-66
3567548322,4728,1436,15488,-144,199,-38
3567550039,4820,1548,15828,-186,183,8
3567551750,4364,-132,16280,-215,120,153
3567553463,3940,-1180,16316,-97,271,-62
3567555187,3648,-528,16492,94,173,-293
3567556939,3584,128,16536,121,96,-253
3567558669,4004,1016,16180,48,166,-175
3567560392,4652,1492,15864,20,192,-32
3567562110,4232,1256,16020,-57,130,-109
3567563829,3824,1172,16172,-96,120,-98
3567565553,3320,1112,16376,-91,180,-60
3567567347,3480,876,16460,-144,56,115
3567569061,3704,0,16312,-121,43,130
3567570767,4168,-440,15968,-90,157,108
3567572460,5156,-268,15860,42,286,-183
3567574164,4168,500,16300,37,257,-243
3567575856,3396,476,16564,38,207,-194
3567577579,2700,716,16452,62,223,-209
3567579281,3052,1548,16376,12,49,-87
3567580976,3568,1216,16380,1,3,72
3567582667,4328,720,16152,-35,160,34
3567584372,4196,704,16448,-87,133,-65
3567586075,3392,1064,16224,-112,14,-28
3567587834,3124,608,16700,-127,25,87
3567589542,3888,-128,16108,-27,129,4
3567591256,3948,-1192,16000,96,59,24
3567592975,3992,-1568,16172,211,90,-165
3567594742,4316,628,16300,203,238,-362
3567596544,4116,2288,15920,63,186,-158
3567598455,3712,2712,16464,-76,122,-7
3567600199,3100,824,16380,-112,74,210
3567601948,2996,12,16448,-61,25,31
3567603703,3212,660,17008,-20,-79,-99
3567605441,3900,600,16228,-62,-59,75
3567607226,4500,-108,16012,-63,112,101
3567609030,4700,216,16232,26,28,-242
3567610796,4144,344,15952,-6,46,-172
3567612561,3184,548,15604,112,177,-299
3567614321,3292,2632,16528,-16,116,-249
3567616128,3820,1760,15984,-112,-60,180
3567617869,4588,680,15880,-83,67,165
3567619699,3840,528,17048,-98,71,-314
3567621437,3336,760,16624,-195,-155,105
3567623140,3256,860,16236,-15,33,-82
3567624831,4080,1512,15404,-56,72,68
3567626544,4076,272,15792,-199,-6,82
3567628235,4620,304,15308,-48,118,-133
3567629991,4568,856,15644,-72,112,-162
3567631698,4108,740,16080,-134,83,-92
3567633363,4048,324,16172,-150,144,-236
3567635012,3536,620,16544,-26,126,-138
3567636656,3436,376,16740,-18,3,-98
3567638311,3548,868,16840,-94,-35,-231
3567639984,3920,1116,16252,-49,14,-30
3567641695,4000,1120,15808,-62,7,15
3567643373,4448,828,15728,-159,-21,30
3567645042,5104,936,15456,-186,170,36
3567646734,5000,508,15364,-149,259,139
3567648414,4640,-444,16004,-87,225,-49
3567650097,3520,-268,16572,0,195,-212
3567651830,3336,40,16632,26,204,-167
3567653584,3528,264,16668,21,167,-118
3567655331,3596,732,16624,-8,71,-203
3567657102,4176,1272,16028,-32,105,-90
3567658893,4948,1136,15776,-72,120,-60
3567660634,5028,964,15684,-84,155,-142
3567662380,3528,1012,15824,-157,200,-18
3567664124,3340,-8,16044,-44,195,-22
3567665871,3484,504,16528,-46,101,-2
3567667592,3592,140,16592,-57,81,64
3567669324,4516,492,16236,23,301,-68
3567671065,4428,576,16572,44,204,-128
3567672845,3504,1048,16604,-21,177,-171
3567674586,3140,960,16496,-45,186,-108
3567676313,3172,464,16324,4,132,41
3567678058,3264,572,16224,-50,53,-33
3567679776,3348,288,16188,-47,32,1
3567681493,4216,496,16344,18,121,-76
3567683258,4056,336,16388,-36,45,5
3567684991,3612,1124,16660,-58,187,-191
3567686709,3532,1200,16748,-41,185,-74
3567688394,4180,212,15908,55,71,90
3567690052,4204,-268,16252,63,163,-136
3567691778,4128,-48,16280,87,189,-193
3567693447,3360,604,16496,118,139,-156
3567695116,3084,1444,16288,83,-15,-78
3567696782,3432,1528,16652,-64,84,-12
3567699239,3584,1008,16680,-22,4,102
3567700956,3772,424,16772,-56,-32,-40
3567702697,3984,668,16120,-83,65,-65
3567704382,3968,204,16144,-18,124,-52
3567706076,3668,432,16312,-21,59,-85
3567707768,4004,364,16084,-20,80,-168
3567709460,4148,932,15620,25,148,-184
3567711151,4196,960,16068,40,119,-164
3567712899,3008,1664,16532,-34,49,-247
3567714604,2816,1508,16840,-107,28,-80
3567716313,3688,1068,16356,-29,11,22
3567718019,4148,820,16600,-161,-32,124
3567719723,4152,-52,16048,-83,16,-17
3567721428,4212,472,16012,16,73,-176
3567723157,4272,1056,15752,-72,34,41
3567724866,3940,400,16044,-160,133,-65
3567726572,3972,540,16128,-165,162,-178
3567728285,3984,996,15912,-94,29,-152
3567729996,4144,624,16560,-150,49,-54
3567731705,4224,0,16472,-95,167,-189
3567733437,3916,292,16520,-43,135,-270
3567735147,3776,764,16212,-13,-37,-175
3567736854,3864,1200,16212,-90,66,-87
3567738562,3932,1028,16216,-95,76,43
3567740271,4116,664,15900,-99,-24,9
3567741981,4288,1044,15908,-124,123,-8
3567743689,4820,1100,15708,-111,190,13
3567745395,4688,828,15972,-169,182,31
3567747099,4288,-384,16184,-117,141,47
3567748805,3732,-956,16664,-15,263,-180
3567750511,3804,-552,16740,21,242,-254
3567752218,3740,692,16376,43,103,-256
3567753948,4304,1288,15924,-27,157,-6
3567755690,4536,840,16008,0,215,-138
3567757425,4244,1084,15908,4,169,-218
3567759177,3664,964,16200,-52,85,-69
3567760917,3332,1132,16120,-54,188,-11
3567762638,3440,696,16276,-117,67,126
3567764354,3668,352,16352,-124,57,103
3567766089,4524,-120,16220,-42,196,46
3567767808,4932,-108,16172,52,277,-214
3567769512,4200,364,16352,39,256,-278
3567771211,3072,432,16360,44,238,-148
3567772912,3016,956,16260,51,152,-167
3567774609,3232,1064,16596,-32,37,-27
3567776382,3696,1028,16404,-37,80,-20
3567778194,4160,448,16424,-2,130,62
3567779951,4024,636,16240,-27,42,-167
3567781710,3408,1556,16556,-157,82,-5
3567783424,3640,1140,16616,-141,144,116
3567785140,3868,32,16128,2,106,81
3567786838,3732,-1504,16136,103,29,-22
3567788520,4284,-1300,15900,178,149,-272
3567790201,3960,540,16524,197,247,-253
3567791878,3824,2044,15628,113,116,-169
3567793564,4112,2760,16436,-74,110,-22
3567795314,4160,2204,16364,-80,145,131
3567797020,3192,264,16240,-77,31,104
3567798733,3004,-52,16536,-4,-39,-137
3567800446,3592,692,16844,-58,15,-120
3567802159,3844,700,16120,-68,-25,195
3567803867,4860,-244,15968,-15,68,-55
3567805600,4296,-28,16104,6,111,-245
3567807309,3796,264,15696,111,154,-326
3567809023,3048,1880,15996,92,111,-306
3567810738,3196,2512,16744,-132,32,-25
3567812448,3460,2000,16464,-138,-6,148
3567814156,4804,-344,16772,-102,112,113
3567815888,3708,612,16936,-108,-50,-275
3567817600,3396,312,16532,-95,3,14
3567819308,3240,828,15848,29,50,-126
3567821015,3996,1352,16372,-179,9,148
3567822721,3848,-264,16008,-189,9,-46
3567824428,4496,292,15576,-75,103,-206
3567826159,4732,992,15948,-99,63,-96
3567827868,4204,388,16356,-178,143,-124
3567829576,3620,152,16372,-47,199,-251
3567831288,3516,560,16400,25,140,-254
3567832997,3572,732,16680,-82,-22,-76
3567834714,3668,836,16364,-61,-10,-131
3567836462,4172,1432,15756,-95,-16,37
3567838212,4224,1040,15664,-147,-59,104
3567839989,5188,932,15400,-184,137,-21
3567841824,4928,252,15616,-145,258,123
3567843569,4308,-676,16096,-67,168,-99
3567845286,4128,-324,16168,-43,237,-214
3567847084,3500,-96,16708,-2,251,-214
3567848778,3244,708,16780,33,154,-146
3567850460,3936,1020,16316,-4,86,-153
3567852143,4176,1552,16156,-32,136,-178
3567853817,4264,1072,15908,-5,103,-12
3567855494,4472,1168,15960,-76,73,-89
3567857226,4128,1020,15752,-143,126,-73
3567858933,3588,520,15712,-83,274,30
3567860645,3784,152,16192,-69,144,71
3567862354,3896,-284,16544,-45,72,29
3567864088,4272,-88,16432,20,251,-177
3567865799,4280,828,16528,99,283,-187
3567867535,3716,1104,16388,-11,130,-121
3567869245,3268,796,16536,-72,145,-112
3567871781,3496,972,16232,-27,91,-64
3567873501,3500,224,16416,-63,-5,66
3567875215,3796,-160,16036,-40,72,-42
3567876925,3864,804,16044,40,161,-119
3567878703,3888,600,16156,-11,15,16
3567880402,3840,900,16700,-69,170,-58
3567882095,3864,652,16556,-28,159,7
3567883797,4172,-136,16072,78,115,11
3567885501,3972,-8,16352,67,108,-219
3567887200,4120,564,15924,50,212,-183
3567888957,3008,844,16292,85,160,-105
3567890666,3480,1472,16112,47,-23,8
3567892382,3976,1284,15784,-90,58,18
3567894088,4028,1056,16260,-47,91,44
3567895792,4048,624,16380,-12,22,-12
3567897505,3764,336,16220,-80,29,-3
3567899244,3708,176,16348,-63,134,-91
3567900957,3456,832,16556,27,86,-107
3567902665,4028,616,15884,-25,-16,-45
3567904372,4584,1148,15892,-42,245,-168
3567906080,4376,1104,16456,-23,206,-199
3567907786,3224,1448,16568,-28,13,-147
3567909517,2848,920,16464,-97,-26,31
3567911225,3724,704,16388,-77,58,54
3567912943,4224,816,16552,-89,-2,39
3567914661,3980,184,16384,-98,-67,-37
3567916370,4240,1008,15832,-82,100,-139
3567918079,3896,968,15904,-84,75,-32
3567919858,3760,740,16296,-144,47,-51
3567921557,3860,592,16136,-158,68,-86
3567923251,4160,1032,16088,-109,54,-139
3567924943,4156,812,16292,-136,27,-54
3567926636,4276,64,16368,-87,128,-107
3567928327,3632,492,16308,-2,166,-241
3567930076,3540,832,16308,5,65,-265
3567931780,4000,1776,16328,-121,-14,-39
3567933489,3888,424,16096,-125,53,183
3567935198,4052,140,15936,-94,72,40
3567936905,4104,832,16028,-74,12,-136
3567938611,4476,940,15808,-124,123,-25
3567940341,4716,628,16056,-164,178,31
3567942051,4532,84,16296,-158,134,50
3567943758,4004,-552,16380,-89,226,-139
3567945464,3752,-460,16572,79,221,-266
3567947171,3896,356,16528,90,179,-350
3567948878,3928,1552,16148,-32,96,-92
3567950608,4428,1232,15856,-35,268,6
3567952318,4116,716,16020,-42,190,-54
3567954025,3768,656,16356,-57,61,-113
3567955732,3720,1264,16328,-115,177,-62
3567957439,3608,680,16224,-73,149,168
3567959146,3716,140,16180,-79,100,145
3567960886,3960,-120,16468,-50,112,-39
3567962602,4520,216,16164,51,230,-152
3567964323,4248,516,16344,2,246,-114
3567966040,3732,304,16484,-2,182,-124
3567967751,2984,804,16424,4,237,-218
3567969459,3032,884,16488,17,85,-75
3567971235,3624,1148,16584,-12,43,-15
3567972937,3648,912,16444,-68,72,53
3567974634,4132,20,16300,18,103,-1
3567976328,3568,888,16256,-22,48,-161
3567978020,3588,1396,16152,-68,5,-68
3567979711,3856,1176,16648,-116,182,92
3567981459,3760,-616,15824,7,42,165
3567983167,3748,-1516,16352,153,103,-291
3567984876,4060,-568,16312,191,216,-465
3567986583,3556,1260,16296,174,87,-162
3567988292,3440,2288,16392,-14,68,-29
3567989998,3928,2008,16208,-113,39,81
3567991727,3976,1676,16360,-91,125,-3
3567993437,3324,-168,16216,-50,-26,84
3567995144,3212,488,16852,-59,45,-141
3567996851,3280,508,16612,-63,90,42
3567998558,4100,320,15892,20,-14,43
3568000266,5068,140,16088,-3,50,-84
3568001995,4940,120,16084,-6,151,-218
3568003709,3560,1364,15936,85,164,-270
3568005415,3068,1796,16296,-22,18,-156
3568007120,3368,1624,16352,-128,64,40
3568008828,3860,912,16208,-89,82,210
3568010537,4364,120,16804,-88,93,-176
3568012268,3912,848,16456,-161,-142,-12
3568013977,3644,292,16216,-106,-51,43
3568015686,3792,1448,15668,-21,98,-57
3568017392,3996,432,16100,-175,54,32
3568019100,3764,1124,15972,-109,71,-183
3568020807,4464,1324,16040,-89,31,-69
3568022536,4544,840,16104,-152,12,-70
3568024245,3924,-388,16648,-139,196,-80
3568025953,3768,-336,16160,0,255,-285
3568027660,3592,1152,16428,-17,18,-156
3568029366,3504,624,16368,-85,-7,-17
3568031072,3924,988,16396,-60,46,-30
3568032781,4032,960,15960,-64,-33,4
3568034490,4484,892,15872,-138,9,-102
3568036200,5112,1372,15696,-237,223,56
3568037905,4840,492,15832,-208,225,190
3568039611,4064,-712,16052,-130,171,12
3568041318,3748,-1188,16448,-16,259,-249
3568044186,3772,632,16628,67,103,-140
3568046019,4192,1424,15984,55,88,-193
3568047727,4524,1968,16036,-38,192,-103
3568049424,4280,992,15920,-20,197,-53
3568051116,4036,1460,16104,-96,88,-52
3568052810,3616,1080,16152,-160,68,41
3568054501,3308,380,16252,-124,212,31
3568056252,3656,-48,16360,-51,59,114
3568057952,3980,-536,16268,-28,46,88
3568059659,4756,-68,15940,11,332,-180
3568061373,4292,428,16372,84,283,-254
3568063089,3324,1264,16204,-3,173,-162
3568064799,3060,820,16472,-31,175,-100
3568066531,3016,1384,16436,24,154,-163
3568068243,3700,1164,16408,-94,20,134
3568069950,4112,324,16580,-74,136,-25
3568071657,4168,444,16244,-56,160,-48
3568073365,3472,448,16104,-3,6,-55
3568075072,3524,916,16632,-95,95,-31
3568076802,3684,384,16568,-73,98,80
3568078511,4008,-580,16232,80,120,38
3568080221,4308,-540,16020,162,117,-246
3568081930,4024,1084,16444,92,245,-331
3568083635,3520,1436,16228,70,238,-182
3568085342,3148,1604,16284,18,3,-8
3568087074,3412,1484,16556,-128,40,72
3568088786,3712,808,16396,-91,56,76
3568090615,3968,452,16408,11,1,-59
3568092469,3924,272,16488,-54,-46,6
3568094237,3636,216,16364,-22,151,-79
3568095978,3772,492,16272,47,-3,-42
3568097846,4308,684,15852,22,10,-107
3568099544,4296,1276,15884,-22,195,-158
3568101230,3808,1224,16160,37,177,-143
3568102911,2916,1304,16484,-21,-66,-171
3568104590,3156,1112,16492,-66,-63,-52
3568106268,4376,860,16256,-83,149,-27
3568108023,3820,804,16680,-163,-15,19
3568109730,3876,488,16312,-153,-119,-4
3568111456,3896,760,16112,-95,10,-69
3568113178,3988,756,16028,-90,112,-45
3568114894,3768,844,15940,-161,14,-87
3568116608,4068,692,15792,-143,2,-74
3568118352,4296,992,15732,-78,59,-71
3568120087,4568,120,16504,-140,54,-30
3568121797,4596,-36,16220,-108,134,-190
3568123505,3648,568,16360,-27,214,-193
3568125214,3744,1052,16380,-31,15,-177
3568126923,3856,1352,16600,-147,-20,-15
3568128654,3868,812,16240,-138,36,139
3568130362,4128,156,15992,-82,50,-28
3568132075,4236,828,15952,-111,-14,-94
3568133783,4480,968,15936,-136,40,-57
3568135492,4816,928,15688,-147,168,103
3568137199,4468,-488,16124,-117,206,-35
3568138931,3768,-360,16296,-28,260,-234
3568140640,3744,-204,16508,57,262,-237
3568142347,4044,1136,16268,74,146,-239
3568144081,3884,1356,16188,-75,115,-35
3568145792,4396,1220,16064,-46,238,17
3568147500,4384,876,16236,-59,160,-15
3568149232,4056,700,16120,-63,98,-115
3568150940,3540,1168,16104,-101,194,-4
3568152649,3352,640,16232,-79,144,118
3568154362,3604,44,16412,-69,93,-4
3568156083,4024,-128,16396,-58,128,-28
3568157791,4628,460,16132,33,262,-173
3568159533,4632,572,15992,8,251,-116
3568161248,3696,452,16380,-3,257,-256
3568162963,3040,1084,16412,6,255,-132
3568164705,3168,912,16276,26,41,-57
3568166439,3524,1200,16292,-27,13,0
3568168160,3872,236,16500,-66,87,124
3568169972,4288,532,16252,26,112,-56
3568171704,3628,464,16264,-3,-8,-42
3568173462,3440,952,16280,-36,68,-145
3568175201,3568,1072,16784,-48,172,52
3568176909,4156,-572,16076,36,83,100
3568178605,4028,-868,15952,67,103,-108
3568180331,3992,-412,16080,154,200,-331
3568182028,3244,1368,16364,134,109,-264
3568183721,3220,1740,16392,19,13,26
3568185414,4028,1964,16016,-60,66,-33
3568187103,3876,1680,16316,-89,62,43
3568188799,3780,564,16228,-43,-39,28
3568190580,3688,564,16284,-86,8,-5
3568192308,3532,120,16208,-38,118,-4
3568194028,3632,236,16220,-28,30,24
3568195793,4460,132,15932,5,6,-15
3568197510,4828,44,16040,2,153,-115
3568199221,4028,1148,15828,94,149,-360
3568200962,3072,1512,16684,-16,64,-199
3568202680,3168,1584,16452,-106,71,20
3568204398,3512,900,16668,-110,47,115
3568206109,4120,836,16372,-157,31,-22
3568207822,4024,-40,16200,-139,-105,14
3568209532,4168,212,15996,-78,1,-146
3568211264,3972,1184,15832,-56,64,-16
3568212976,4024,1012,15928,-105,82,-38
3568214685,3596,892,16048,-107,86,-82
3568217274,4264,1260,16168,-140,64,-110
3568219038,4376,456,16284,-178,36,38
3568220757,3856,-668,16468,-47,205,-186
3568222504,3492,-272,16276,32,169,-337
3568224281,3644,852,16404,20,11,-200
3568226055,3816,1240,16344,-69,41,-19
3568227776,4164,920,15772,-109,4,-1
3568229469,4292,1188,15836,-134,-10,-97
3568231156,5016,1544,15620,-190,73,-20
3568232920,4840,556,15956,-204,272,61
3568234618,3980,-760,16192,-140,109,103
3568236318,3720,-1316,16480,-66,112,-34
3568238016,3492,-480,16680,73,303,-318
3568239711,3972,412,16188,128,136,-174
3568241404,4292,1072,15992,117,87,-226
3568243158,4860,1752,16072,-77,206,-7
3568244865,3868,1112,16228,9,239,-161
3568246579,3272,1208,16556,-84,1,-44
3568248290,3352,944,16016,-126,22,3
3568250001,3472,956,16368,-173,205,95
3568251710,4004,-516,16120,-101,-4,239
3568253444,4648,-752,15888,-41,9,23
3568255156,5176,-316,16064,15,318,-222
3568256866,3864,512,16516,147,352,-361
3568258574,2696,1096,16668,29,124,-121
3568260286,2724,1080,16324,9,146,-122
3568261997,3272,1884,16180,-2,201,2
3568263771,4364,1048,15968,-59,76,129
3568265474,4348,748,16552,-101,80,64
3568267173,3732,380,16484,-96,92,-25
3568268868,2968,460,16620,-52,16,-63
3568270562,3756,208,16232,-76,-30,70
3568272256,4192,-144,15764,-34,124,103
3568274010,4396,-1020,15936,119,184,-73
3568275716,4712,-132,16024,201,136,-392
3568277427,4204,1004,16284,133,127,-430
3568279137,3192,1732,16488,42,236,-36
3568280844,3388,2132,16524,-18,74,-56
3568282554,3256,932,16652,-148,-50,191
3568284263,3712,376,16188,-76,51,66
3568285971,3896,488,16500,9,-2,2
3568287679,4224,404,16152,-35,-9,-42
3568289387,3956,556,16356,-72,54,-41
3568291095,3960,228,16124,25,98,19
3568292802,3868,216,16048,25,32,-168
3568294534,3772,1120,16044,40,149,-269
3568296245,3884,1660,16096,35,215,-212
3568297953,3384,1740,16496,-47,27,-87
3568299661,3808,488,16368,-111,-16,6
3568301369,3820,448,16704,-108,97,-141
3568303079,3628,820,16760,-144,17,1
3568304810,3664,716,16492,-90,-93,-89
3568306520,4112,884,16052,-106,56,40
3568308232,4128,572,15952,-103,131,37
3568309938,3860,724,16012,-122,40,-94
3568311641,4108,944,15980,-120,6,-136
3568313351,4300,1080,15876,-135,102,-23
3568315087,4320,-104,16368,-107,78,47
3568316798,4092,184,16516,-38,95,-360
3568318507,3780,688,16516,-53,128,-88
3568320221,3876,480,16288,-5,137,-69
3568321935,3700,1188,16556,-101,23,-159
3568323644,3832,644,16024,-157,4,30
3568325375,3884,580,15904,-111,88,-44
3568327084,4372,744,15856,-89,56,18
3568328794,4360,984,15668,-138,61,-69
3568330503,4692,608,15824,-136,241,67
3568332213,4620,76,16180,-76,226,33
3568333923,4092,-480,16492,-46,153,-92
3568335654,3724,-180,16444,18,228,-258
3568337364,3840,1012,16372,66,198,-186
3568339070,3816,1012,16208,26,94,-66
3568340778,4232,1236,16128,-45,160,-126
3568342485,4484,1068,16036,-71,230,-20
3568344194,4224,848,15988,-41,159,-63
3568345925,3496,936,15936,-120,68,-29
3568347635,3596,380,16460,-144,199,30
3568349350,3552,64,16688,-54,123,71
3568351059,3864,-292,16316,-27,88,53
3568352768,4456,504,16048,-15,209,-195
3568354476,4332,532,15988,21,295,-85
3568356210,3980,520,16000,37,252,-172
3568357922,3204,780,16344,-17,134,-138
3568359630,3084,884,16600,-16,170,-111
3568361345,3596,1128,16296,-34,31,83
3568363061,3660,368,16360,-49,-18,159
3568364775,4068,124,16300,-15,122,-92
3568366569,3960,428,16220,25,102,-57
3568368269,3652,556,16332,5,52,-94
3568369960,3696,1204,16436,-83,108,-29
3568371650,4072,128,15976,-27,190,43
3568373343,4048,-460,15976,74,71,-100
3568375040,4036,-596,16292,106,66,-181
3568376794,3528,668,16304,83,219,-341
3568378496,3200,1492,16360,93,108,-50
3568380205,3120,1644,16580,64,-1,-16
3568381916,4116,1720,16516,-116,39,51
3568383625,4144,1300,16412,-33,96,29
3568385332,3876,572,16308,-63,-7,70
3568387062,3604,-48,16160,-90,-28,33
3568389914,3492,224,16484,0,111,-58
3568391666,4136,340,15980,29,-56,-56
3568393382,4836,504,15788,-36,161,-180
3568395092,4436,748,16120,20,238,-314
3568396802,3104,1884,16676,-16,66,-256
3568398512,2956,924,16584,-91,-38,54
3568400213,3572,900,16540,-97,66,-35
3568401906,3968,1052,16588,-136,8,42
3568403600,4276,420,16116,-81,-128,-17
3568405291,4284,816,15808,-88,58,-32
3568406981,4244,888,15684,-83,133,4
3568408734,4176,960,15968,-133,90,-65
3568410439,3944,944,15796,-174,98,-70
3568412152,3832,852,16336,-157,161,-106
3568413859,4044,680,16368,-114,57,-91
3568415565,3972,-228,16372,-83,-29,-104
3568417275,3748,-120,16224,-17,147,-269
3568419012,3808,312,16152,49,125,-291
3568420723,3732,1372,16388,-58,-15,-90
3568422429,4100,788,15840,-110,13,72
3568424138,4344,832,16012,-94,92,-20
3568425842,4608,1340,15820,-146,39,-39
3568427548,4656,1136,16004,-204,179,-36
3568429278,4256,276,16356,-173,243,75
3568430988,3984,-300,16164,-136,149,53
3568432697,3688,-900,16416,-61,113,-28
3568434404,3724,-808,16408,104,249,-233
3568436114,3860,-140,16316,177,246,-326
3568437823,4428,1684,15860,94,101,-194
3568439551,4664,1616,16024,-33,206,-44
3568441298,3548,1124,16372,-54,221,-62
3568443040,3272,1116,16400,-71,106,-70
3568444761,3328,1388,16220,-182,76,-7
3568446478,3732,388,16352,-167,193,213
3568448192,4076,-408,16256,-71,50,100
3568449990,4712,-556,15932,-33,60,7
3568451704,4596,-116,16248,70,357,-309
3568453409,3356,420,16620,131,271,-230
3568455104,3080,768,16440,98,173,-218
3568456799,2992,1536,16168,-56,131,-96
3568458491,3496,1176,16132,6,140,78
3568460302,4404,1140,16468,-84,74,-24
3568462013,4200,864,16620,-137,57,18
3568463722,3404,704,16240,-87,130,-41
3568465431,3148,320,16664,-120,-35,123
3568467139,4092,-376,16104,-58,66,-17
3568468848,3996,-760,16016,2,181,-30
3568470583,4172,-1144,16176,236,159,-260
3568472295,3980,1036,16216,154,71,-389
3568474031,4116,1664,15896,83,160,-224
3568475885,3444,2268,16104,49,237,-48
3568477696,3400,1876,16636,-90,26,74
3568479432,3384,764,16384,-129,14,47
3568481331,3344,344,16928,-20,-1,101
3568483092,3908,212,16416,-47,-50,21
3568484819,3960,404,16044,-70,35,-3
3568486516,4344,188,16088,42,147,-60
3568488203,4252,232,16084,6,32,-139
3568489883,3652,304,16024,23,33,-216
3568491637,3268,1836,16196,10,241,-339
3568493333,3352,1900,16360,-27,-11,34
3568495043,4444,676,16416,-94,42,35
3568496745,4212,300,16948,-151,147,-139
3568498438,3332,1096,16516,-117,38,-75
3568500133,3488,752,16368,-88,-66,-33
3568501890,3660,1236,15920,-76,-75,-22
3568503619,4176,988,16140,-227,114,194
3568505426,3948,-48,15832,-104,22,-12
3568507269,4188,656,16060,-72,-18,-214
3568509091,4232,620,16104,-136,147,3
3568510882,4380,88,16164,-83,166,-57
3568512665,3804,540,16456,-59,84,-283
3568514370,3764,560,16328,-53,50,-185
3568516128,3800,1196,16544,-60,50,-174
3568517891,3836,1132,16524,-88,-55,-30
3568519629,3928,856,15932,-143,67,-51
3568521354,4380,704,15760,-101,63,50
3568523069,4624,804,15632,-126,70,-24
3568524799,4676,860,15584,-174,92,28
3568526525,4704,260,16016,-119,281,39
3568528217,4052,-364,16556,-23,189,-75
3568529896,3760,-472,16420,29,149,-149
3568531592,3368,152,16680,-6,242,-249
3568533309,3756,928,16432,94,151,-117
3568534983,4016,1344,15980,-19,61,-78
3568536668,4300,1280,15864,-94,107,-41
3568538362,4916,1048,15856,-79,213,-103
3568540065,3932,996,16136,-108,115,-12
3568541763,3524,316,15960,-141,86,74
3568543488,3256,120,16472,-79,220,-133
3568545176,3604,348,16584,-53,103,46
3568546857,3888,-32,16528,-10,106,20
3568548544,4448,360,16368,0,261,-120
3568550237,4476,1156,16140,12,279,-201
3568551908,3932,1360,16360,7,196,-148
3568553611,3084,424,16316,-43,127,10
3568555305,2800,656,16536,6,168,-147
3568556994,3412,844,16320,-32,-38,64
3568558676,3928,380,16252,-11,-37,119
3568560375,4468,188,16356,-40,183,-17
3568562425,3936,168,16376,10,92,-114
3568564164,3412,1304,16596,-28,81,-99
3568565896,4340,920,16168,-40,240,51
3568567602,3788,420,16316,-1,198,6
3568569318,3756,-668,16004,109,49,-59
3568571019,3844,284,16336,99,163,-287
3568572706,3368,716,16336,100,162,-188
3568574429,3324,1956,16356,94,104,-79
3568576115,4016,1804,16204,-66,19,128
3568577792,4036,1228,16300,-94,65,111
3568579477,3832,784,16616,-10,67,-68
3568581163,4012,892,16284,-51,-27,29
3568582832,3824,420,16316,-86,54,-2
3568584544,3552,312,16416,-45,139,-42
3568586238,3992,304,16152,-22,-28,-145
3568587913,4396,472,15756,-44,98,-63
3568589585,4504,220,15968,15,223,-194
3568591272,3356,1864,16296,35,96,-381
3568592962,3080,1484,16588,-86,-69,28
3568594666,3560,1056,16352,-69,41,14
3568596354,4016,1012,16604,-122,73,61
3568598041,4028,488,16308,-140,-125,-23
3568599718,4288,596,15900,-131,-75,-13
3568601400,4144,740,15664,-45,119,16
3568603121,4084,552,15956,-143,87,-33
3568604916,3880,656,16060,-134,84,-116
3568606680,4048,916,15860,-102,158,-163
3568608433,4100,692,16392,-144,64,-57
3568610112,4068,248,16340,-102,34,-168
3568611752,3868,268,16196,-96,92,-209
3568613388,3788,332,16272,-2,104,-235
3568615076,3816,1288,16384,-52,-27,-150
3568616747,3784,1156,16360,-85,-61,13
3568618432,4012,792,16020,-60,57,-17
3568620121,4224,984,16024,-114,22,-37
3568621814,4716,1696,15796,-201,134,-33
3568623498,4856,1436,15712,-240,261,120
3568625233,4412,-436,15960,-144,209,85
3568626937,3696,-976,16380,-57,183,-162
3568628649,3468,-784,16604,-9,167,-248
3568630358,3724,228,16648,106,229,-262
3568632098,3864,1060,16272,34,66,-134
3568633807,4544,1388,15984,-58,192,-153
3568635538,4416,1396,16052,-67,279,-85
3568637250,3784,968,16060,-28,118,-57
3568638966,3292,1424,16176,-141,68,-61
3568640676,3336,1032,16376,-186,108,46
3568642383,3680,476,16384,-94,158,136
3568644098,4336,-700,16400,-51,25,61
3568645878,5100,100,16052,-17,319,-231
3568647580,4552,336,16296,39,414,-201
3568649275,3320,280,16456,102,203,-171
3568650973,2492,932,16568,12,132,-186
3568652667,2892,1324,16292,13,173,-102
3568654362,3604,1076,16332,41,79,52
3568656144,4276,700,16504,-62,0,22
3568657876,4296,1068,16296,-113,154,-113
3568659604,3528,1264,16264,-88,134,-85
3568661320,3496,680,16568,-114,7,100
3568663035,3916,-44,15900,-91,88,54
3568664759,3916,-1620,16088,156,146,-35
3568666514,4040,-1440,16024,250,147,-290
3568668240,4048,644,16444,156,117,-357
3568669957,4276,2824,15636,69,303,-151
3568671668,3664,2712,16748,4,237,-6
3568673380,3840,1856,16352,-103,38,139
3568675102,2716,172,16428,-118,35,30
3568676848,3360,444,16716,43,8,-84
3568678566,3616,884,16788,-6,-95,-18
3568680279,4240,492,15944,-133,-34,218
3568681988,4992,-272,16332,16,205,-132
3568683697,4004,-164,16180,78,-6,-198
3568685417,3440,-116,15856,82,44,-294
3568687189,3068,2312,15884,48,242,-395
3568688948,3364,2404,16548,-62,33,78
3568690697,4556,588,15836,-119,-32,265
3568692444,4944,-256,16720,-137,118,-80
3568694212,3444,1444,16732,-136,25,-163
3568695963,3212,-220,16524,-99,-86,107
3568697899,3688,1820,15884,-84,102,-83
3568699699,4220,108,15980,-157,29,222
3568701493,4164,-468,15636,-52,-6,-21
3568703227,5112,808,15960,-91,62,-214
3568704941,4068,744,16236,-136,218,-130
3568706659,3912,532,16552,-102,151,-138
3568708408,3508,436,16372,-81,112,-192
3568710145,3308,804,16924,-125,127,-188
3568711852,3408,332,16756,-21,-24,-116
3568713600,3884,1480,16096,-15,-122,-141
3568715365,4144,1372,15872,-137,-43,15
3568717106,4680,1064,15340,-102,112,48
3568718859,5144,628,15512,-197,128,125
3568720556,4832,-64,15412,-160,144,133
3568722210,4304,-488,16124,-58,322,-187
3568723866,3368,-20,16820,55,161,-163
3568725519,3424,104,16660,46,135,-157
3568727166,3428,420,16904,-83,212,-118
3568728819,3808,1084,16276,53,142,-147
3568730522,3900,1500,16272,-4,32,-131
3568732216,4632,876,15832,-84,25,1
3568735075,4092,1144,15628,-95,243,-62
3568736831,3500,208,15916,-70,125,23
3568738548,3712,224,16520,-104,264,-15
3568740279,3532,232,16772,-16,188,10
3568742077,4280,568,16336,9,126,28
3568743764,4460,172,16436,15,261,-133
3568745452,4240,776,16212,23,359,-244
3568747130,3248,1180,16284,0,147,-131
3568748803,3376,816,16376,-40,36,-14
3568750480,3348,776,16252,-93,116,-15
3568752177,3324,8,16128,-21,88,51
3568753891,4152,488,16140,8,45,-141
3568755606,4056,416,16192,-34,115,-38
3568757327,3808,692,16344,-9,179,-94
3568759041,3360,1080,16848,-48,98,-24
3568760754,4232,472,16088,15,57,35
3568762509,4328,-188,16064,53,268,-57
3568764237,4140,-188,16312,111,175,-152
3568765963,3728,672,16380,49,69,-127
3568767681,2704,644,16448,67,76,-73
3568769393,3496,1392,16000,91,172,-80
3568771103,3804,1660,16232,-49,-9,18
3568772840,3852,852,16096,-60,3,112
3568774552,3804,388,16408,-3,43,-34
3568776261,4016,420,16260,-17,-1,-58
3568777971,3732,416,16176,-44,74,-97
3568779679,3780,268,16248,-15,154,-20
3568781387,3912,380,16332,27,86,-141
3568783132,4300,1144,15672,-27,47,-132
3568784859,4224,1012,16252,10,179,-194
3568786610,2688,1304,16884,-17,39,-194
3568788351,2788,1180,16608,-54,-77,-46
3568790100,4096,1268,16172,-106,31,49
3568791878,4288,320,16140,-110,83,131
3568793711,4016,188,16020,-73,-50,-164
3568795422,4144,1068,15868,-86,45,-43
3568797128,4056,892,16120,-80,178,13
3568798823,3896,648,16172,-124,90,-21
3568800518,4164,988,15604,-160,28,-152
3568802211,3912,1020,15936,-157,94,-107
3568803966,4140,112,16360,-84,117,-64
3568805748,4052,392,16612,-95,57,-223
3568807461,3636,604,16092,-19,145,-189
3568809172,3668,848,16388,27,123,-179
3568810880,3832,992,16616,-83,-59,-32
3568812586,4028,836,16048,-148,11,-30
3568814295,4200,932,15828,-139,138,7
3568816031,4440,664,15640,-81,92,-4
3568817748,4488,900,15884,-167,85,-64
3568819463,4548,228,16144,-138,244,69
3568821173,4444,-276,16204,-61,244,-1
3568822881,3636,-696,16480,-57,175,-165
3568824590,3744,104,16556,40,162,-343
3568826323,3748,860,16384,47,225,-244
3568828060,4256,1044,15888,27,113,-28
3568829777,4136,1200,16076,-67,164,-135
3568831486,3904,836,16064,-54,193,-38
3568833193,3708,888,16144,-11,157,-101
3568834905,3580,904,16292,-100,85,-22
3568836636,3784,792,16356,-129,200,91
3568838347,4120,-224,16336,-38,132,131
3568840082,4368,-428,15904,7,106,-50
3568841794,4464,380,16260,-15,263,-244
3568843500,3644,372,16112,51,304,-93
3568845215,3276,388,16164,73,200,-154
3568846997,2892,944,16564,-10,64,-155
3568848698,3624,1016,16436,-15,148,-43
3568850392,3968,636,16600,-10,44,58
3568852088,4124,220,16384,-17,17,19
3568853778,3872,856,16384,-83,109,-156
3568855469,3968,1484,16068,-49,143,17
3568857286,3864,572,16208,-89,67,92
3568859132,3844,-104,15972,-42,54,84
3568860943,3804,-1256,16296,98,173,-90
3568862723,4148,-196,16500,210,152,-308
3568864527,3264,1380,16176,111,55,-223
3568866281,3784,2420,16448,37,162,-35
3568868184,4460,2404,16104,-7,120,75
3568869942,3684,1200,16432,-127,14,124
3568871689,3000,-368,16484,-61,43,-50
3568873434,3332,724,16644,-17,-16,-76
3568875139,3540,612,16468,-56,-88,82
3568876819,4380,232,15968,-65,77,23
3568878570,5048,-64,16168,31,144,-112
3568880265,3904,492,15908,109,50,-396
3568881968,3368,1400,15812,74,115,-384
3568883664,3172,2484,16372,-60,170,-152
3568885359,3800,1824,16120,-145,-43,251
3568887052,4012,292,16496,-141,-83,319
3568888807,4156,-96,17084,-102,144,-302
3568890513,3896,552,16500,-81,-143,15
3568892227,3524,1084,16044,-30,-10,-140
3568893938,3956,1708,15724,-133,113,16
3568895652,3892,208,15944,-175,99,23
3568897360,4348,900,15728,-56,-32,-176
3568899093,4832,1000,15788,-110,6,-89
3568900803,4328,840,16172,-171,213,-107
3568902512,3872,-216,16232,-65,120,-114
3568904227,3432,812,16384,-11,77,-315
3568905936,3620,1024,16600,-93,109,-122
3568908512,3640,1232,16576,-46,-57,-90
3568910300,4112,984,15800,-145,-72,45
3568912032,4276,752,15500,-156,60,10
3568913728,5108,1364,15632,-147,146,-8
3568915424,4944,-28,15648,-183,122,162
3568917122,4488,-544,15880,-167,213,18
3568918816,3892,-732,16076,-26,280,-140
3568920572,3608,184,16580,75,155,-323
3568922279,3636,616,16448,-27,159,-67
3568923990,3872,604,16640,18,188,-166
3568925728,4312,1788,16136,-12,85,-124
3568927437,4200,860,16060,-46,59,-58
3568929144,3980,1140,16172,-114,228,-44
3568930877,3936,864,15868,-119,140,1
3568932586,3792,896,15860,-107,113,37
3568934301,3984,-328,16132,-115,170,162
3568936035,4096,-624,16232,-9,194,50
3568937748,4388,132,16280,37,182,-163
3568939455,3972,412,16504,56,265,-210
3568941166,3456,1136,16492,-3,265,-154
3568942862,3204,888,16528,5,135,-90
3568944558,3268,1360,16404,-33,72,-90
3568946250,3664,576,16156,-79,129,101
3568947942,3948,208,16368,-29,140,1
3568949633,3884,616,16348,-38,48,-53
3568951388,3640,532,16140,-39,78,-73
3568953083,3432,880,16304,-20,156,-82
3568954787,3784,404,16544,0,32,58
3568956495,4124,-20,16396,17,65,16
3568958202,4116,-660,16012,126,267,-165
3568959909,4308,72,15996,174,260,-327
3568961653,3312,1320,16236,58,104,-148
3568963367,3236,1320,16292,45,89,-29
3568965088,3660,1288,16568,-85,37,74
3568966801,3884,872,16120,-78,-47,66
3568968510,3964,856,16456,-62,29,-22
3568970215,3952,12,16212,1,72,10
3568971987,3800,136,16232,-7,74,-86
3568973791,3512,608,16448,-27,32,-110
3568975529,4100,652,15992,25,96,-57
3568977227,4308,992,15876,-5,134,-137
3568978927,4396,1188,16080,-30,115,-188
3568980624,3480,1340,16460,-33,114,-155
3568982338,2848,784,16616,-3,9,9
3568984072,4032,988,16120,-84,28,-33
3568985714,4148,1096,16588,-124,47,-11
3568987349,4072,268,16284,-79,18,47
3568988983,4108,336,16148,-39,-41,-69
3568990618,3940,696,16128,-106,-12,-63
3568992252,3536,920,16296,-142,163,-18
3568993935,3740,692,16196,-119,138,28
3568995643,4048,692,15828,-98,-28,-104
3568997352,4408,544,16340,-175,62,-51
3568999061,4460,-48,16272,-65,216,-149
3569000769,4144,116,16144,-16,151,-235
3569002505,3680,868,16336,-41,41,-301
3569004217,3928,1916,16448,-119,97,-65
3569005923,3792,1404,16448,-137,71,142
3569007631,3960,-24,16132,-109,-1,71
3569009341,4024,720,15888,-95,65,-173
3569011049,4440,988,15812,-75,87,-12
3569012783,4644,992,15792,-145,76,54
3569014493,4536,-16,15936,-202,149,86
3569016204,4052,-656,16296,-36,322,-135
3569017915,3940,-536,16512,57,224,-203
3569019624,3892,160,16732,50,141,-354
3569021331,3600,1536,16576,-26,205,-161
3569023063,4012,1532,16012,22,143,-14
3569024771,4200,1280,16000,-50,114,14
3569026480,4416,860,15912,-113,129,-121
3569028190,3808,1020,16204,-51,203,24
3569029900,3600,716,16212,-23,109,60
3569031607,3416,232,16380,-88,88,21
3569033378,3700,48,16520,-46,228,-11
3569035081,4516,116,16308,44,155,-100
3569036806,4504,320,16208,21,169,-128
3569038525,4252,428,16180,-25,289,-186
3569040239,3296,904,16336,38,233,-174
3569041934,3124,548,16512,-21,96,-113
3569043693,3124,916,16712,-50,93,-176
3569045404,3588,744,16648,-23,103,126
3569047124,4204,180,16188,38,15,-37
3569048836,4344,416,16172,13,88,-66
3569050543,3852,640,15980,2,163,-102
3569052252,3876,1960,16184,-77,165,25
3569053984,4080,452,15640,-69,50,197
3569055692,3900,-468,16300,-7,118,50
3569057401,3696,-1088,16528,169,144,-183
3569059109,3928,312,16496,131,90,-367
3569060818,3416,1344,16348,67,69,-246
3569062524,3464,1908,16444,15,133,8
3569064232,4280,2100,16424,-110,32,35
3569065940,3944,516,16388,-92,18,33
3569067649,3548,344,16336,-40,74,-87
3569069357,3160,216,16464,-32,15,27
3569071063,3660,448,16400,-22,-29,-36
3569072769,3808,488,16080,-61,36,-13
3569074502,4700,416,15956,34,120,-65
3569076212,4532,572,16180,45,92,-236
3569077920,3384,1408,16076,8,103,-265
3569080807,2928,1804,16620,-55,95,-122
3569082552,3832,856,16432,-98,-69,261
3569084272,4352,372,16480,-146,172,-111
3569085999,4176,276,16148,-92,-46,-79
3569087700,4124,488,16108,-44,-73,-118
3569089393,3752,1020,15948,-105,41,-4
3569091086,3952,1124,16240,-138,179,-71
3569092777,3752,1064,16224,-135,102,-98
3569094468,4280,1216,16024,-104,-23,-78
3569096164,4444,1000,16064,-178,133,-24
3569097860,4036,-344,16120,-87,110,-56
3569099563,3860,-400,16260,-25,93,-235
3569101275,3600,484,16364,-20,70,-200
3569102985,3376,752,16744,-3,80,-106
3569104693,3596,1060,16520,-19,-21,-62
3569106402,4196,984,15856,-84,-88,21
3569108109,4500,1108,15644,-153,163,-104
3569109820,5120,1424,15524,-193,157,14
3569111545,4828,960,15784,-212,148,78
3569113260,4096,-1008,16108,-211,218,105
3569114972,3512,-1116,16680,42,216,-313
3569116682,3616,-204,16560,89,164,-338
3569118392,3884,472,16300,91,147,-177
3569120101,4364,1784,15912,59,278,-173
3569121878,4472,1476,15980,-53,118,-21
3569123738,3912,1416,16360,-100,131,-37
3569125534,3672,1180,16328,-110,173,34
3569127378,3260,836,16240,-140,134,-26
3569129091,3628,360,16248,-119,29,161
3569130779,4524,-660,15712,-45,142,53
3569132487,4896,-664,15884,23,221,-96
3569134199,4784,-160,16136,71,266,-292
3569135893,3424,796,16660,42,282,-274
3569137650,3036,848,16440,52,227,-173
3569139357,2872,1612,16500,-5,109,-193
3569141080,3512,1476,16244,-70,51,143
3569142790,4256,736,16360,-52,189,13
3569144499,4168,532,16584,-66,106,-6
3569146207,3776,656,16208,-62,-41,-82
3569147942,3384,724,16584,-120,108,78
3569149654,3632,-12,16300,-32,87,133
3569151365,3916,-688,16228,42,80,-25
3569153073,4296,-932,16068,145,143,-187
3569154780,4336,752,16152,208,257,-405
3569156488,3808,1564,16200,110,165,-266
3569158218,3188,1772,16556,-22,82,-57
3569159928,3508,2048,16680,-126,145,100
3569161647,3480,892,16428,-100,48,184
3569163364,3400,440,16296,-27,-14,-83
3569165082,3752,72,16508,-51,2,32
3569166796,3976,600,16164,3,76,-16
3569168575,3840,308,16280,-8,16,15
3569170293,4312,584,16052,4,45,-104
3569172056,4120,800,15916,40,167,-161
3569173770,3712,1384,16056,46,119,-239
3569175481,3292,1708,16484,-5,70,-232
3569177186,3320,1236,16368,-62,13,51
3569178949,4232,488,16580,-91,75,-12
3569180673,3700,1040,16660,-179,-22,-62
3569182364,3808,908,16232,-186,-28,31
3569184102,3804,720,15892,-52,-12,-13
3569185852,4104,596,16212,-115,16,-35
3569187570,3844,804,16264,-154,62,-70
3569189291,4152,536,15788,-83,112,-80
3569190965,4352,1000,15584,-86,17,-43
3569192611,4276,420,16204,-164,4,-19
3569194249,4416,288,16356,-108,190,-229
3569195883,3812,724,16456,-25,134,-178
3569197518,3808,612,16052,-25,46,-122
3569199185,3748,984,16448,-92,54,-206
3569200873,3696,1004,16408,-110,77,63
3569202591,3984,376,15992,-86,1,-1
3569204309,4084,484,15836,-98,-12,-57
3569206021,4516,740,15608,-142,89,-44
3569207777,4824,888,15668,-134,137,54
3569209697,4792,100,16120,-119,190,-58
3569211432,4168,-240,16472,-97,243,-158
3569213142,3804,-268,16492,54,249,-199
3569214845,3772,768,16252,58,154,-270
3569216542,3808,1200,16528,-10,125,-165
3569218239,3980,1400,16056,-44,221,-21
3569219999,4540,1028,16020,-56,113,13
3569221742,4252,684,15928,-89,115,-160
3569223460,3860,976,15940,-109,166,-156
3569225175,3504,600,16088,-55,186,60
3569226887,3468,92,16348,-78,126,2
3569228600,3792,36,16596,-60,124,-43
3569230341,4188,248,16588,-7,184,-108
3569232089,4536,528,16176,-9,178,-73
3569233807,3988,664,16372,7,229,-266
3569235523,3148,896,16524,-5,249,-120
3569237236,3084,624,16448,20,177,-53
3569238988,3232,900,16044,-31,76,-61
3569240733,3648,440,16152,-32,92,90
3569242447,4156,288,16292,33,121,13
3569244159,4276,392,16416,21,50,5
3569245872,3688,508,16424,-12,107,-165
3569247587,3596,1664,16440,-21,173,-1
3569249299,3860,984,16324,-24,101,130
3569251034,4072,-152,16028,0,57,34
3569253580,4076,-192,16292,157,208,-330
3569255307,3548,576,16372,118,98,-239
3569257022,3168,1576,16152,67,71,-69
3569258732,3992,2176,16248,-55,126,52
3569260445,4216,1684,16572,-61,93,100
3569262225,3812,912,16268,-54,-6,-49
3569263928,3732,512,16496,-91,60,20
3569265656,3504,552,16428,-38,83,-1
3569267357,3512,452,16376,-70,47,46
3569269056,3784,-136,16096,-5,7,-79
3569270758,4572,352,15960,28,95,-134
3569272553,4332,852,15896,88,121,-273
3569274327,3852,1632,16084,61,119,-319
3569276090,2668,1552,16760,-121,34,-78
3569277794,3572,892,16468,-63,37,11
3569279495,4104,716,16372,-147,-6,17
3569281191,3964,224,16404,-166,-7,1
3569282942,4244,680,15784,-47,56,-92
3569284658,4060,912,15728,-60,34,-11
3569286356,3960,892,16084,-111,34,-45
3569288076,3744,780,16424,-187,157,-105
3569289777,4140,1444,16156,-102,89,-99
3569291473,4288,580,16316,-165,5,58
3569293239,4276,64,16360,-171,54,-2
3569294950,3900,-272,16228,-32,149,-210
3569296663,3740,296,16408,55,64,-258
3569298376,3712,996,16380,-73,64,-124
3569300096,3612,1024,16340,-101,50,-5
3569301809,4048,1144,15720,-87,-23,-12
3569303545,4492,1208,15676,-163,36,-25
3569305260,4852,1344,15640,-231,196,-36
3569306973,4696,980,15992,-171,220,42
3569308685,4048,-676,16140,-135,100,84
3569310399,3720,-1036,16296,-73,251,-166
3569312112,3600,-944,16640,39,269,-231
3569313825,4104,596,16228,141,152,-232
3569315538,4536,1368,15940,5,141,-73
3569317257,4696,1412,16024,-26,268,-68
3569318978,3704,1284,16208,16,164,-131
3569320693,3068,1180,16400,-92,27,-36
3569322405,3384,1276,16324,-188,188,9
3569324182,3324,776,16296,-159,145,147
3569325902,4020,-252,16176,-96,-12,128
3569327614,5024,-740,15908,-56,188,-53
3569329321,4504,72,16276,74,371,-324
3569331034,3780,500,16324,101,288,-263
3569332748,2952,736,16492,81,149,-207
3569334459,3156,1724,16340,24,235,-140
3569336178,3116,1572,16416,-1,135,-12
3569337893,4388,1512,16240,-57,63,52
3569339601,4020,584,16748,-156,116,71
3569341313,3200,768,16452,-54,25,-89
3569343027,3228,924,16576,-96,-10,-8
3569344766,4144,-216,16036,-84,22,143
3569346480,4116,-1024,15760,61,205,10
3569348197,4064,-1440,16136,173,145,-94
3569349910,4488,156,16512,200,114,-458
3569351621,3776,1524,15828,72,241,-150
3569353334,3252,2384,16504,13,168,-122
3569355069,3532,2596,16428,-90,45,34
3569356785,3316,708,16404,-125,-15,142
3569358499,3464,204,16512,-15,76,-24
3569360212,3728,212,16912,-30,-29,-16
3569361938,3876,548,16400,-77,-27,52
3569363659,3936,8,16080,1,105,78
3569365410,4348,344,16300,39,27,-126
3569367130,4200,456,15792,43,29,-166
3569368845,3540,1040,15832,69,182,-294
3569370585,3376,2048,16340,-27,115,-189
3569372331,3932,968,16164,-78,-83,106
3569374063,4280,516,16456,-128,98,21
3569375861,3720,876,16628,-142,174,-118
3569377570,3568,808,16304,-120,-97,-84
3569379267,3940,1300,15768,-72,16,-7
3569380976,4004,1092,16096,-113,93,133
3569382683,3592,172,16264,-145,23,-7
3569384381,4284,944,15932,-87,-18,-156
3569386157,4540,1124,15716,-129,104,-48
3569387864,4444,68,15968,-124,100,62
3569389576,4016,-68,16212,-39,123,-335
3569391286,3644,972,16316,-38,164,-190
3569392993,3784,844,16472,-25,106,-124
3569394702,3828,1148,16536,-120,-26,-142
3569396411,3812,788,16144,-163,30,4
3569398118,3916,720,16016,-111,89,1
3569399824,4328,388,15816,-92,24,0
3569401532,4544,824,15772,-150,87,-50
3569403239,4556,416,15632,-96,204,86
3569404947,4608,272,15916,-37,183,-30
3569406678,4180,-212,16644,-74,144,-61
3569408387,3828,156,16728,15,262,-242
3569410095,3680,568,16540,47,235,-177
3569411801,3740,468,16296,23,105,-68
3569413510,3728,1148,16224,-54,146,-108
3569415224,4712,992,15868,-37,171,-17
3569416966,4676,916,16040,-50,132,-84
3569418677,3924,920,16040,-125,121,-72
3569420389,3460,340,16108,-111,185,-8
3569422096,3444,392,16120,-77,194,9
3569423802,3732,104,16208,-27,128,-25
3569426661,4336,720,16444,5,223,-53
3569428506,4336,756,16152,36,201,-136
3569430212,3716,916,16448,-18,171,-112
3569431910,3372,648,16356,-17,182,-105
3569433604,3200,860,16264,-6,133,-75
3569435296,3352,552,16232,-25,17,94
3569436991,3720,316,16372,-29,35,68
3569438738,4104,232,16432,42,114,-50
3569440442,4348,256,16304,28,77,-99
3569442154,3760,1200,16512,-67,145,-115
3569443861,3528,976,16472,-76,168,-41
3569445568,3892,572,16312,-4,146,33
3569447275,3812,-588,15988,48,65,-67
3569449007,3888,-396,16192,82,140,-262
3569450728,3564,616,16328,118,167,-207
3569452452,3228,1484,16176,100,43,-103
3569454168,3896,1680,16220,-62,24,46
3569455876,4252,1600,16328,-61,95,22
3569457586,4216,1216,16480,-69,68,63
3569459317,3800,504,16168,-59,26,19
3569461026,3248,104,16344,-46,150,-93
3569462735,3356,336,16444,-23,92,-100
3569464441,3792,416,16332,-12,-25,-67
3569466147,4512,428,15968,-70,101,-52
3569467853,4736,128,15948,-33,198,-135
3569469585,3500,1400,16448,51,72,-372
3569471291,2864,1308,16676,-63,-46,-38
3569472997,3668,1332,16484,-87,128,-17
3569474705,3800,1112,16632,-106,75,88
3569476411,3960,420,16356,-90,-105,-16
3569478150,4420,556,15896,-99,-4,-50
3569479917,4356,740,15692,-65,118,-33
3569481638,3892,804,16104,-129,101,57
3569483348,3896,460,15792,-142,114,-89
3569485059,4080,1104,16124,-87,111,-162
3569486765,4184,976,16164,-101,53,-83
3569488472,4204,40,16412,-123,34,-73
3569490206,3800,-72,16356,-57,166,-186
3569491916,3748,72,16280,13,126,-268
3569493621,3852,1472,16508,-41,-21,-175
3569495382,3884,644,16368,-126,20,46
3569497130,4068,944,16120,-83,96,-41
3569498873,4184,888,15924,-102,54,-10
3569500692,4704,1424,15608,-128,123,-118
3569502401,4736,940,16116,-212,272,125
3569504129,4220,-252,16280,-148,145,23
3569505907,3700,-1208,16608,-63,141,-70
3569507648,3608,-1140,16416,48,237,-254
3569509343,3796,564,16380,138,178,-281
3569511117,4156,1188,15872,67,90,-70
3569512805,4344,1468,15972,4,193,-88
3569514486,4176,1028,16300,-36,210,-49
3569516169,3692,1332,16176,-45,76,-178
3569517851,3440,1484,16284,-135,84,-78
3569519528,3604,616,16208,-158,206,88
3569521210,3596,340,16416,-120,105,132
3569522958,4696,-544,15780,-48,81,-38
3569524806,5024,-208,15856,-14,276,-193
3569526598,4080,40,16472,99,324,-228
3569528332,3144,1016,16244,69,158,-204
3569530044,2844,1072,16212,-14,153,-83
3569531755,3268,1248,16296,27,152,-39
3569533441,3808,1300,16404,-17,21,36
3569535115,4544,656,16252,-80,97,61
3569536787,4300,640,16412,-100,176,-56
3569538460,3332,816,16480,-86,50,-28
3569540131,3776,404,16524,-117,-12,88
3569541856,3840,-92,16188,-110,82,86
3569543555,3988,-1396,15904,111,181,-13
3569545267,4148,-568,16068,230,89,-352
3569546975,4120,1396,15932,147,131,-313
3569548683,4248,2344,15708,98,273,-174
3569550388,3832,2412,16424,-32,110,29
3569552120,3240,1420,16612,-138,55,112
3569553903,3052,48,16640,-28,4,46
3569555696,3368,220,16588,-21,-13,-25
3569557443,3680,652,16348,-78,-81,40
3569559166,4628,20,15616,-24,96,132
3569560877,4668,40,16296,14,99,-223
3569562591,4364,180,16172,16,29,-200
3569564335,3184,748,15792,30,158,-344
3569566059,3184,1992,16404,16,115,-193
3569567755,3240,1984,16620,-51,-14,-101
3569569460,4408,1080,16044,-126,26,176
3569571164,4236,184,16900,-53,213,-305
3569572932,3324,960,16572,-181,-169,90
3569574670,3240,288,16516,-160,-148,61
3569576404,3792,1928,15804,-100,136,9
3569578124,4100,28,16064,-195,4,240
3569579883,4312,36,15808,-43,19,-253
3569581663,4696,704,15740,-65,94,-205
3569583494,4324,668,15992,-81,134,-77
3569585200,4092,332,16356,-124,140,-183
3569586892,3436,728,16388,-85,185,-243
3569588574,3276,760,16636,-54,110,-171
3569590265,3420,588,16744,-65,-61,-120
3569591945,4028,1356,16380,-116,7,-125
3569593679,4016,1264,16132,-154,74,24
3569595378,4404,496,15812,-84,2,18
3569597090,4784,932,15612,-179,70,22
3569599643,4916,336,15468,-145,319,41
3569601365,4432,-132,16136,-69,239,14
3569603073,3624,-408,16420,40,158,-223
3569604780,3264,408,16772,-2,220,-199
3569606479,3604,520,16536,48,196,-86
3569608223,3812,1216,16188,32,78,-120
3569609965,4388,916,15804,-105,65,1
3569611670,4872,996,15964,-75,159,-97
3569613365,4392,1400,16012,-100,155,-78
3569615089,3492,236,15956,-131,107,-34
3569616783,3276,56,16332,-71,237,-41
3569618480,3604,116,16496,-15,182,-26
3569620173,3820,420,16256,5,85,-17
3569621864,4548,404,16420,24,281,-125
3569623558,4580,992,16428,67,320,-235
3569625283,3924,1172,16588,-42,173,-32
3569626978,3224,284,16384,-24,142,-77
3569628673,3040,904,16416,-5,149,-76
3569630365,3120,744,16176,-7,42,27
3569632088,3880,364,16052,-15,0,22
3569633791,4284,56,16192,-19,127,-9
3569635551,4324,396,16220,1,129,-109
3569637256,3692,1012,16484,-28,74,-93
3569638968,3792,996,16304,-11,162,-68
3569640677,3900,300,16168,5,143,88
3569642384,3872,-392,16200,64,93,-25
3569644095,3992,4,16300,91,123,-254
3569645827,3268,684,16328,89,142,-192
3569647535,3240,1716,16132,124,71,-161
3569649244,3660,1828,16608,-25,-55,105
3569650949,3868,1088,16416,-91,92,79
3569652656,3612,560,16444,-11,32,-22
3569654365,3728,556,16328,-1,-36,-33
3569656099,3796,684,16408,-91,65,-43
3569657807,3592,88,16320,-20,134,-4
3569659516,3912,144,16304,-1,44,-109
3569661222,4368,744,15652,-45,-22,-109
3569662927,4224,572,16364,-4,271,-269
3569664633,2964,1812,16600,18,55,-231
3569666362,2772,1588,16720,-43,-64,-48
3569668072,3688,1196,16132,-80,26,2
3569669780,4252,588,16776,-100,60,91
3569671487,3976,392,16644,-99,-45,17
3569673194,4100,536,15796,-101,-74,-39
3569674900,4048,752,15824,-39,146,-29
3569676631,4084,664,16040,-145,66,9
3569678339,3960,328,16056,-148,30,-61
3569680070,4120,936,15696,-118,130,-199
3569681781,4008,528,16160,-108,82,-47
3569683489,4248,484,16480,-114,69,-80
3569685197,3832,172,16488,-110,92,-171
3569686932,3496,692,16348,23,133,-321
3569688643,3756,1208,16492,-92,-60,-17
3569690349,3832,804,16388,-98,-55,32
3569692080,4036,944,15928,-115,118,23
3569693789,4128,644,15720,-76,9,-63
3569695496,4668,1328,15552,-126,15,-123
3569697225,4928,1084,15804,-243,185,143
3569698932,4456,-536,16128,-97,265,2
3569700643,3796,-944,16336,-53,156,-126
3569702356,3440,-1012,16520,13,179,-252
3569704088,3768,784,16624,87,228,-278
3569705795,4104,1168,16172,25,72,-26
3569707505,4392,1256,16052,-64,192,-77
3569709211,4300,876,16144,-68,243,-88
3569710917,3896,1104,16088,-30,128,-180
3569712625,3232,1096,16248,-134,43,45
3569714333,3280,756,16112,-137,136,91
3569716064,3676,288,16448,-87,163,146
3569717797,4380,-592,16184,-17,63,4
3569719507,5124,400,16196,-36,324,-216
3569721214,4488,380,16360,2,386,-153
3569722919,3180,432,16308,101,236,-239
3569724629,2832,1044,16548,-16,104,-188
3569726335,3148,1160,16340,-13,109,-109
3569728168,3772,1132,16356,-4,123,58
3569729892,4168,236,16360,-59,8,59
3569731603,3896,432,16252,-54,118,-126
3569733304,3596,1040,15924,-40,124,-101
3569735003,3588,1388,16632,-106,66,-1
3569736702,3912,0,16240,-108,126,137
3569738460,3728,-1468,15888,131,129,-8
3569740172,4032,-1584,16124,206,124,-211
3569741887,4288,512,16572,153,180,-434
3569743595,3836,2472,15752,74,234,-68
3569745305,3744,2372,16616,14,194,38
3569747014,4136,2288,16408,-98,71,36
3569748746,2988,432,16220,-113,39,152
3569750456,2944,-76,16576,53,-2,-92
3569752168,3568,700,16800,-26,-62,-98
3569753879,3892,528,16068,-94,-25,132
3569755590,4804,-40,15856,4,157,26
3569757297,5076,-256,16332,31,111,-118
3569759030,3736,288,15872,86,56,-414
3569760741,2992,1784,16116,65,194,-302
3569762448,3324,2744,16728,-40,39,-44
3569764191,3628,2088,16376,-138,-79,182
3569765954,4724,-164,16492,-150,125,21
3569767676,3712,996,16888,-124,19,-178
3569769431,3460,-228,16216,-103,-114,86
3569772359,3940,1500,16056,-162,107,175
3569774116,4024,348,15952,-142,47,196
3569775838,4564,420,15744,-72,-11,-188
3569777560,4856,876,15904,-152,158,-138
3569779285,4328,964,16092,-122,205,-128
3569781004,3916,20,16248,-101,104,-99
3569782703,3376,700,16816,-78,126,-330
3569784388,3452,332,16872,-72,71,-26
3569786069,3576,204,16728,-11,-4,-129
3569787752,3824,1332,16304,-58,-101,-110
3569789434,4424,1216,15564,-157,44,36
3569791174,4776,1304,15572,-138,83,32
3569792878,5264,760,15552,-210,100,183
3569794590,4556,-676,15964,-159,271,-51
3569796297,4036,-404,16328,23,242,-135
3569798008,3424,-548,16600,61,169,-171
3569799716,3332,440,16824,-13,170,-196
3569801448,3560,628,16688,47,190,-125
3569803196,3864,1216,16360,67,111,-194
3569804904,4660,1180,15788,-80,30,17
3569806609,4384,1120,15932,-75,248,-178
3569808313,3896,988,15920,-95,125,24
3569810019,3516,468,15948,-92,65,19
3569811749,3544,428,16272,-135,166,-15
3569813456,3692,-36,16380,-15,175,13
3569815167,4056,200,16192,7,141,-2
3569816873,4788,-56,16220,-2,200,-83
3569818579,4032,1032,16532,64,362,-317
3569820287,3084,972,16536,11,141,-29
3569822053,3104,792,16524,-20,88,-62
3569823772,3428,1248,16168,-132,100,43
3569825491,3736,80,16272,-32,116,43
3569827195,4072,168,16144,-1,70,-82
3569828894,4068,124,16456,-26,32,-56
3569830669,3332,988,16336,-21,171,-171
3569832486,3504,616,16760,-26,22,60
3569834245,4280,280,16112,14,87,-1
3569835942,4180,-408,16000,30,200,-40
3569837622,4500,108,16356,171,246,-327
3569839294,3752,1220,16228,27,79,-66
3569840966,2840,740,16268,19,82,13
3569842698,3320,1824,16340,25,174,-55
3569844399,3764,1148,16076,-36,-54,107
3569846115,3836,916,16268,-18,-30,42
3569847822,3936,540,16656,-54,76,18
3569849529,4108,444,16172,-19,31,-25
3569851239,3604,216,16396,-36,50,-34
3569852971,3712,96,16464,-29,121,-76
3569854680,3904,804,15960,-1,127,-175
3569856427,4280,1152,15640,10,81,-180
3569858134,4324,1316,16192,12,109,-216
3569859839,3136,1420,16832,-57,138,-142
3569861544,3052,944,16528,-41,-43,-26
3569863274,4196,1084,16340,-136,9,89
3569864982,4144,540,16684,-151,77,100
3569866687,3832,216,16368,-48,9,-57
3569868405,4376,848,15844,-42,-28,-90
3569870122,4108,1016,15932,-100,67,-82
3569871833,3684,500,16508,-132,138,-21
3569873571,4072,1028,16008,-138,-38,-187
3569875283,3892,728,16120,-194,55,-5
3569876995,4232,104,16020,-134,141,15
3569878705,4244,156,16508,-59,109,-212
3569880414,3628,356,16236,-27,34,-206
3569882120,3852,1260,16400,-23,162,-201
3569883855,3856,1316,16496,-80,59,-25
3569885564,3904,856,16076,-131,-22,67
3569887270,4232,712,15932,-120,122,-14
3569888978,4316,672,15784,-85,108,-26
3569890686,4352,884,15772,-128,58,-62
3569892393,4584,404,15856,-169,194,54
3569894123,4324,-176,16032,-86,237,-46
3569895831,3964,-516,16368,-70,172,-70
3569897537,3824,-332,16400,51,142,-299
3569899293,3844,828,16448,44,207,-162
3569901079,4380,1444,15876,3,150,-163
3569902829,4368,1692,15960,-67,157,-128
3569904561,4100,852,16208,-93,221,7
3569906265,3612,916,16028,-32,121,-84
3569907956,3416,844,16420,-84,53,-47
3569909655,3844,1008,16328,-124,126,47
3569911358,3864,-112,16464,-71,175,189
3569913086,4268,-424,16456,11,166,-158
3569914815,4560,200,16316,32,167,-235
3569916528,4176,368,16112,42,308,-118
3569918229,3376,628,16276,39,254,-201
3569919924,3032,816,16372,-7,151,-145
3569921619,3248,876,16296,-13,70,-130
3569923308,3712,996,16204,-2,144,62
3569925085,4256,620,16360,-18,65,-61
3569926803,3960,620,16452,-48,41,-51
3569928521,3672,536,16372,-18,104,-93
3569930228,3944,1536,16204,-98,136,70
3569931937,3904,604,16664,-113,39,97
3569933652,4120,-296,15952,23,149,37
3569935400,3872,-1284,16388,193,136,-168
3569937118,3640,568,16484,145,115,-366
3569938827,3332,1548,16320,108,68,-237
3569940534,3576,2180,16480,37,106,51
3569942240,4368,1912,16712,-136,40,16
3569944831,3624,436,16484,-116,23,36
3569946621,3308,336,16420,-8,58,-36
3569948329,3460,-4,16496,-63,-32,-16
3569950027,3672,436,16252,-68,46,-9
3569951719,4336,172,15872,-4,75,2
3569953411,4888,312,15848,93,111,-219
3569955101,3664,1320,15920,35,99,-326
3569956849,3256,1920,16208,12,128,-298
3569958554,2812,2060,16764,-81,28,7
3569960265,3904,528,16332,-123,-66,200
3569961970,4180,260,16648,-138,193,-165
3569963689,3772,588,16592,-92,54,-145
3569965405,3984,412,15992,-53,-131,-33
3569967144,3696,1048,15908,-132,71,-13
3569968850,4152,828,15912,-178,193,36
3569970556,3804,696,16052,-126,66,-87
3569972264,4464,1052,15884,-109,-9,-170
3569973972,4384,932,16168,-180,160,-20
3569975679,4308,344,16268,-121,156,13
3569977410,3736,-348,16436,-4,108,-262
3569979116,3724,640,16468,-26,64,-257
3569980825,3664,1008,16592,-30,88,-171
3569982532,3612,1080,16532,-68,-53,48
3569984268,4084,668,15948,-151,-48,28
3569985991,4268,1144,15776,-114,133,-139
3569987729,5004,1620,15500,-121,130,-37
3569989493,4936,348,15872,-203,133,100
3569991262,4024,-928,16264,-156,245,0
3569993073,3704,-916,16620,48,179,-290
3569994842,3700,-328,16540,80,147,-301
3569996566,3768,420,16288,64,193,-222
3569998367,4296,1856,16012,72,166,-151
3570000113,4632,1504,15888,-42,116,-2
3570001815,4144,1272,16080,-65,151,-99
3570003509,3780,1140,16308,-105,189,-37
3570005201,3552,980,16152,-134,71,25
3570006897,3636,164,16196,-161,112,208
3570008653,4092,-520,16192,-111,170,186
3570010358,4460,-576,16116,57,172,-156
3570012118,4640,28,16364,93,241,-214
3570013837,3668,1052,16488,50,320,-276
3570015550,3252,1200,16456,32,238,-151
3570017265,2944,1456,16480,-20,93,-139
3570019007,3320,1332,16196,-89,94,76
3570020719,3884,864,16340,-59,156,73
3570022432,4040,516,16604,-88,82,-27
3570024168,3920,392,16132,-55,19,-23
3570025879,3352,432,16392,-34,170,-46
3570027594,3488,352,16480,11,74,-22
3570029333,4184,240,16224,17,65,65
3570031045,4244,-920,15992,106,206,-54
3570032758,4336,-496,16000,182,273,-275
3570034472,3676,1204,16188,120,107,-283
3570036220,3072,1420,16616,30,87,-43
3570037942,3640,1772,16772,-70,139,37
3570039725,3396,1060,16588,-107,-7,101
3570041429,3928,812,16348,-73,-11,-44
3570043125,3800,104,16296,-14,59,10
3570044822,3748,672,16208,-18,30,-107
3570046513,3540,540,16436,-44,9,-9
3570048210,4032,520,16148,45,116,-102
3570049961,4224,724,16020,29,79,-138
3570051664,4292,1048,15768,29,62,-221
3570053374,3684,1816,16544,-49,120,-171
3570055082,2928,876,16592,-6,41,-25
3570056791,3740,856,16508,-107,-40,-26
3570058495,4252,980,16180,-130,28,-44
3570060267,3972,876,16340,-107,102,13
3570061978,3796,328,16176,-103,-56,-26
3570063683,3764,544,15992,-89,-82,-56
3570065394,3540,1124,16172,-142,105,-81
3570067101,3956,432,16196,-111,76,-14
3570068807,3972,860,15956,-121,-53,-132
3570070538,4284,652,15764,-160,2,-47
3570072250,4572,240,16080,-48,192,-133
3570073957,3956,612,16448,-43,122,-200
3570075665,3748,832,16216,-50,58,-225
3570077377,3616,1536,16372,-120,132,-110
3570079083,3800,732,16164,-124,21,101
3570080812,3848,284,16032,-131,-12,-13
3570082518,4028,340,16012,-119,49,-66
3570084224,4428,712,15828,-36,78,-77
3570085932,4580,864,15828,-141,29,63
3570087638,4792,492,15840,-197,108,90
3570089343,4504,-76,16124,-87,311,-92
3570091073,3928,-608,16228,41,192,-178
3570092782,3788,692,16556,24,184,-328
3570094488,3744,1084,16484,-16,216,-182
3570096195,3772,1396,16044,25,127,-55
3570097902,4276,972,16032,-103,89,-17
3570099606,4716,936,16072,-116,186,-99
3570101314,4168,1060,16204,-56,215,-59
3570103019,3460,516,15988,-58,87,63
3570104724,3372,304,16376,-109,192,-12
3570106428,3640,336,16576,-41,206,-13
3570108182,4180,68,16380,18,121,-60
3570109891,4508,304,16100,-30,160,-101
3570111606,4392,636,16036,-10,380,-206
3570113327,3640,812,16452,4,290,-183
3570115042,3072,620,16528,-5,103,-109
3570117928,3224,868,16304,-39,135,77
3570119685,3992,404,16352,37,2,22
3570121404,4304,444,16136,17,19,-16
3570123125,4140,364,16160,0,159,-120
3570124833,3400,1532,16316,-10,115,-72
3570126532,3788,1476,16328,-87,82,87
3570128234,3988,420,15864,-74,105,63
3570129928,3760,-644,16008,88,168,-25
3570131622,4000,-432,16212,162,86,-360
3570133319,3680,556,16600,101,84,-349
3570135027,3364,1588,16056,51,193,-84
3570136739,4072,2140,15944,-36,84,30
3570138486,4244,1644,16392,-100,18,76
3570140202,3816,860,16520,-115,71,-13
3570141915,3448,516,16452,-14,41,7
3570143646,3580,392,16328,-51,0,-45
3570145356,3404,372,16572,-111,62,-5
3570147072,3968,208,16116,44,72,-76
3570148782,4880,476,15900,8,18,-29
3570150493,4784,216,16044,-4,71,-144
3570152209,3488,1456,16344,23,228,-404
3570153944,2700,1620,16604,-29,-39,-39
3570155656,3728,888,16364,-124,-16,71
3570157369,4084,712,16224,-158,111,50
3570159079,3984,292,16600,-120,26,-78
3570160792,4128,532,15844,-85,-142,-44
3570162503,3792,808,16092,-111,118,-83
3570164223,4100,1176,15916,-101,186,-57
3570165950,3812,768,16088,-118,27,-53
3570167672,4252,1320,15732,-144,45,-161
3570169403,4272,1104,16264,-189,106,-71
3570171132,4400,380,16292,-105,93,-53
3570172849,4004,-72,16072,-70,96,-140
3570174562,3612,312,16244,-11,166,-286
3570176276,3664,852,16480,-1,131,-236
3570177991,3668,1100,16396,-33,-82,7
3570179700,4204,1028,15928,-129,6,3
3570181413,4184,900,15836,-151,107,-6
3570183126,4824,1332,15640,-147,99,-63
3570184834,4764,848,15984,-243,120,99
3570186547,4300,-944,16164,-144,247,0
3570188262,3856,-888,16240,-50,261,-129
3570189972,3592,-812,16468,90,150,-231
3570191712,3880,712,16160,72,184,-246
3570193427,4532,1492,15752,89,201,-133
3570195164,4840,1828,15948,30,171,-114
3570196872,4072,1340,16540,-84,131,-13
3570198622,3384,1016,16456,-71,189,-43
3570200338,3296,1164,16128,-84,141,-71
3570202048,3396,848,16220,-126,45,95
3570203761,3872,-320,16128,-124,123,178
3570205501,4808,-724,15768,26,158,-55
3570207214,5068,-312,15840,49,223,-226
3570208925,4116,436,16560,46,301,-219
3570210639,3008,744,16624,83,271,-243
3570212351,2632,1312,16604,53,203,-259
3570214063,3232,1648,16352,-30,45,-2
3570215798,4192,1336,16152,-59,187,82
3570217510,4160,408,16516,-90,101,-11
3570219221,3896,644,16632,-98,-9,-98
3570220938,3192,912,16672,-134,19,24
3570222650,3728,0,16276,-16,91,121
3570224362,3964,-712,16124,37,38,32
3570226102,4260,-1092,15800,105,75,-57
3570227814,4676,-68,16208,232,311,-368
3570229529,3768,1452,15888,109,122,-212
3570231244,3628,1928,16372,45,143,-143
3570232955,3604,2396,16200,-93,155,49
3570234662,3416,816,16604,-95,45,129
3570236379,3256,188,16532,-28,-48,-24
3570238092,3464,108,16792,-31,-25,-11
3570239806,3944,676,15980,-8,80,-30
3570241615,4040,440,16028,-4,23,-16
3570243458,4500,764,15968,-41,74,-31
3570245287,3924,300,15792,94,139,-176
3570247109,3620,796,15948,94,125,-310
3570248845,3320,2024,16688,-18,59,-216
3570250535,3720,1332,16268,-34,38,115
3570252211,4356,704,16276,-56,93,80
3570253879,3876,672,16712,-142,60,-223
3570255559,3524,896,16376,-172,-23,33
3570257299,3792,752,15960,-38,-7,-46
3570259001,3976,1112,15912,-98,25,-3
3570260718,3880,384,16104,-199,50,27
3570262428,4320,732,15680,-12,79,-145
3570264153,4452,1120,15980,-59,39,-91
3570265862,4392,296,16092,-166,-3,-27
3570267595,4268,304,16148,-91,231,-199
3570269305,3636,668,16264,2,65,-208
3570271012,3852,752,16216,-36,23,-209
3570272719,3800,1048,16524,-141,90,-85
3570274426,3932,728,16352,-64,45,-10
3570276134,3856,556,16144,-100,-18,-32
3570277866,4180,568,15884,-130,5,-94
3570279584,4484,840,15824,-134,165,18
3570281381,4808,460,15572,-145,97,46
3570283181,4616,172,16124,-128,262,-85
3570284968,4116,-300,16628,-48,286,-89
3570286786,3868,156,16500,65,179,-236
3570288566,3472,476,16652,-3,106,-201
3570290816,4040,1400,16224,-27,211,-130
3570292615,4352,912,15932,-17,80,63
3570294380,4640,932,15892,-91,165,-168
3570296157,4116,1124,16004,-120,221,-158
3570297888,3460,704,16032,-41,134,45
3570299647,3332,236,16416,-104,111,13
3570301441,3588,132,16636,-84,201,2
3570303236,3952,356,16508,38,145,-37
3570305080,4424,320,16208,11,129,-48
3570306844,4488,836,16236,-35,283,-251
3570308685,3236,668,16356,25,250,-100
3570310500,3164,564,16304,20,87,-156
3570312193,3284,904,16412,-69,84,-28
3570313861,3572,876,16304,-48,146,58
3570315538,4132,416,16404,8,64,58
3570317212,4248,24,16328,-4,42,-45
3570318944,3868,464,16372,-17,135,-165
3570320630,3604,1192,16372,10,157,-46
3570322379,4356,860,16012,-58,60,61
3570324108,3964,-408,16056,-15,197,-21
3570325801,3992,-656,16208,98,227,-171
3570327460,3832,188,16360,105,70,-257
3570329163,3100,984,16168,87,81,-173
3570330843,3052,1688,16416,70,191,-170
3570332499,3768,1976,16268,-7,46,49
3570334149,4176,1408,16132,-82,23,40
3570335822,4008,1068,16340,-102,74,31
3570337499,3888,740,16264,-46,86,17
3570339160,3460,368,16276,-83,37,-15
3570340872,3516,64,16416,-90,62,21
3570342616,3624,172,16448,17,114,-143
3570344347,4308,404,15884,32,-62,-47
3570346163,4572,972,15904,2,185,-351
3570347913,3972,1612,16292,-33,263,-346
3570349689,2820,1160,16784,-20,7,-62
3570351444,3488,960,16696,-86,-67,12
3570353217,3912,676,16452,-147,67,-15
3570354962,3840,668,16344,-114,29,-15
3570356714,4504,684,15988,-61,-78,-16
3570358461,4124,964,15844,-121,103,-39
3570360202,4192,640,16116,-115,158,-85
3570361925,4024,1020,16092,-105,84,-165
3570363675,4020,1320,16136,-201,50,-18
3570365428,4104,296,16256,-126,177,-11
3570367192,3996,-28,16384,-52,27,-171
3570369010,3872,-180,16044,-2,42,-198
3570370733,3928,552,16384,-15,147,-276
3570372480,3616,1048,16424,-52,34,-52
3570374218,3884,984,16072,-122,-70,-66
3570375931,4176,980,15748,-164,-26,-19
3570377608,4736,1212,15664,-126,195,-95
3570379269,4484,1380,15964,-224,159,67
3570380997,4352,20,16344,-172,162,10
3570382668,3980,-328,16420,-139,201,-8
3570384347,3788,-1164,16524,-26,179,-104
3570386019,3868,16,16528,109,149,-242
3570387687,3812,476,16352,94,173,-158
3570389357,4476,1156,15804,87,195,-137
3570391077,4520,1488,16232,-8,122,-95
3570392774,4144,1256,16088,-45,124,-27
3570394486,3368,1180,16444,-64,211,-104
3570396204,3392,936,16464,-151,40,23
3570397911,3720,1032,16356,-162,53,56
3570399617,3800,-16,16308,-153,136,201
3570401396,5016,-664,15732,21,206,-151
3570403098,4528,212,16424,7,282,-235
3570404794,3944,108,16524,46,303,-224
3570406488,3072,876,16380,99,245,-221
3570408188,3100,1252,16184,13,63,-119
3570409890,3244,1528,16212,-3,85,-67
3570411647,4032,1248,16316,2,108,123
3570413354,4284,724,16616,-89,71,-38
3570415066,3356,1068,16376,-129,60,-29
3570416777,3324,952,16372,-87,129,79
3570418486,3872,-108,16040,-52,64,139
3570420197,4012,-1124,15776,-1,65,-39
3570421929,4180,-884,16140,195,223,-316
3570423646,4216,-168,16380,227,188,-323
3570425355,4044,1716,15796,110,123,-289
3570427061,3364,2240,16704,-42,223,-59
3570428769,3644,2140,16496,-3,190,18
3570430476,3148,892,16452,-73,-7,69
3570432207,3192,520,16652,-53,-8,-86
3570433914,3888,904,16404,-57,8,149
3570435621,4032,496,16008,-53,-19,178
3570437329,4436,-116,16020,6,76,-86
3570439035,4228,312,16108,31,107,-99
3570440741,4040,80,16004,86,86,-91
3570442471,3452,1116,15780,65,88,-342
3570444181,3240,1972,16576,-100,110,-147
3570445887,4016,1464,16132,-47,24,113
3570447593,4480,336,16672,-96,47,115
3570449299,3704,744,16660,-113,58,-297
3570451006,3376,660,16468,-125,-14,72
3570452712,3528,700,16256,-29,-15,-52
3570454419,4056,1652,15880,-132,-18,114
3570456125,4112,88,15556,-200,121,74
3570457832,4504,660,15740,-54,86,-125
3570459536,4372,808,15984,-95,-16,-81
3570461245,4068,464,16344,-178,135,-94
3570464207,3656,420,16556,2,103,-181
3570466018,3616,380,16540,-48,-4,-178
3570467742,3748,432,16464,-83,51,-197
3570469457,3964,1196,16308,-55,41,-152
3570471167,4068,1128,15772,-128,-75,72
3570472961,4548,752,15832,-149,99,-46
3570474657,4712,892,15592,-130,150,-36
3570476344,4772,460,15420,-109,133,55
3570478024,4544,352,16020,-140,253,-24
3570479704,4320,-128,16368,-109,286,8
3570481383,3716,32,16528,50,179,-219
3570483113,3596,172,16816,-39,121,-39
3570484814,3744,560,16244,64,235,-213
3570486523,3688,1224,16204,101,158,-160
3570488233,4472,1076,15908,-24,13,-30
3570489943,4656,1364,15924,-127,251,-147
3570491648,4216,1156,15944,-120,282,-48
3570493378,3532,484,15988,-102,99,-18
3570495088,3436,236,16228,-126,118,10
3570496796,3784,252,16468,9,259,-62
3570498503,3868,396,16628,20,176,-12
3570500212,4440,344,16224,21,149,-100
3570501915,4212,992,16076,-22,326,-149
3570503644,3824,856,16468,-2,263,-124
3570505353,3284,888,16344,4,72,-93
3570507061,2968,532,16540,-61,98,15
3570508768,3296,500,16544,4,92,-18
3570510472,3764,644,16204,7,25,8
3570512178,4400,244,16108,-18,38,40
3570513906,3808,416,16472,-5,193,-146
3570515622,3632,712,16340,4,121,-106
3570517337,3880,1080,16216,-31,57,-50
3570519045,4112,48,16008,-15,222,40
3570520750,3968,-360,16216,102,154,-204
3570522456,3732,-44,16324,106,59,-198
3570524191,2996,556,16392,109,98,-211
3570525895,3304,2016,16624,49,113,-36
3570527601,3656,1736,16396,4,1,59
3570529307,4104,1572,16364,-96,54,70
3570531012,3808,344,16456,-26,60,65
3570532718,3808,348,16576,-37,23,-87
3570534426,3548,388,16208,-58,40,-59
3570536134,3552,240,16184,-32,147,0
3570537838,3960,584,16024,9,8,-109
3570539544,4264,624,15748,-29,-13,-53
3570541249,4392,588,16024,-28,205,-285
3570542955,3076,1408,16492,35,105,-226
3570544660,3064,1472,16596,-68,-90,-71
3570546366,3612,1344,16292,-108,-65,42
3570548074,4296,692,16588,-80,104,58
3570549782,3808,416,16220,-103,-109,-56
3570551486,4108,672,15772,-87,-105,-98
3570553191,4168,1288,15740,-123,125,40
3570554921,4144,460,15728,-137,140,86
3570556628,3828,528,15880,-135,35,-254
3570558334,3960,916,15968,-149,74,-208
3570560067,4284,584,16216,-95,126,-12
3570561775,4092,-4,16396,-105,56,-102
3570563512,3736,-180,16520,-79,48,-166
3570565348,3636,848,16344,28,130,-365
3570567070,3804,1208,16332,-72,-39,4
3570568769,3840,900,16228,-138,-14,-41
3570570461,3916,960,16088,-148,71,9
3570572222,4280,708,15764,-55,76,-62
3570574048,4828,1624,15840,-184,102,5
3570575896,4748,428,15984,-200,278,110
3570577598,4116,-728,16388,-81,200,43
3570579284,3912,-1216,16316,-44,143,-70
3570580966,3676,-148,16592,74,243,-394
3570582647,3924,1164,16344,111,155,-132
3570584326,4012,1184,16040,80,99,-51
3570586062,4340,1156,16012,-71,165,-86
3570587759,4112,948,16072,-17,216,-127
3570589467,3776,1440,16348,-6,155,-134
3570591217,3444,908,16220,-138,49,93
3570593014,3568,924,16268,-169,186,27
3570594771,3940,-412,16404,-60,77,170
3570596500,4896,-88,15996,11,149,-161
3570598203,4752,100,16260,-26,283,-196
3570599896,3960,484,16188,91,377,-211
3570601593,3012,936,16528,41,145,-134
3570603287,2796,784,16600,20,66,-98
3570604979,3004,1312,16704,16,170,-115
3570606700,3960,928,16688,4,15,125
3570608433,4364,612,16360,-92,18,21
3570610158,4288,744,16020,-123,121,-62
3570611851,3568,1144,16436,-79,95,-7
3570613546,3616,256,16504,-112,30,111
3570615239,3696,-328,16088,-75,19,80
3570616959,3720,-1348,16272,122,160,-77
3570618654,4224,-696,16500,247,133,-398
3570620347,4064,560,16192,188,127,-420
3570622038,4144,2476,15624,42,264,-110
3570623734,4128,2860,16284,-35,158,-32
3570625428,3364,1244,16328,-145,-40,233
3570627186,2800,-160,16484,-119,11,160
3570628890,3008,376,16844,36,53,-165
3570630601,3652,712,16476,-48,-145,157
3570632308,4312,600,15848,-92,-21,183
3570634014,5052,-220,16120,-34,219,-31
3570636600,3396,436,16036,79,34,-347
3570638383,3060,1596,16096,36,200,-340
3570640085,3272,2536,16456,3,234,-264
3570641776,3636,1720,16144,-109,-109,288
3570643467,4728,-176,16588,-96,142,-153
3570645158,4228,656,16936,-122,214,-395
3570646849,3628,752,16344,-144,-123,147
3570648596,3388,1280,15916,-64,-3,-111
3570650300,3832,1592,16064,-148,87,118
3570652035,4104,-52,15920,-160,67,93
3570653741,4568,496,15624,-49,-20,-193
3570655444,4632,776,15904,-137,170,-135
3570657154,4452,824,16128,-128,256,-126
3570658887,3840,-36,16336,-63,100,-178
3570660614,3260,972,16576,-74,86,-246
3570662335,3520,420,16664,-74,104,-70
3570664073,3368,528,16852,-23,24,-197
3570665786,3856,1280,16272,-83,-145,-15
3570667493,4264,924,15588,-159,35,-23
3570669228,4736,1164,15376,-133,134,-2
3570670941,5220,788,15384,-168,131,69
3570672647,4724,-76,15840,-165,249,54
3570674353,4028,-828,16184,4,317,-131
3570676096,3440,-560,16724,80,215,-273
3570677802,3396,620,16828,16,117,-186
3570679535,3704,692,16548,22,221,-136
3570681244,3896,1216,16488,45,170,-160
3570682954,4440,1228,16080,-70,11,5
3570684660,4760,1304,15872,-115,173,-123
3570686365,4216,760,15628,-93,232,-3
3570688073,3436,432,15956,-91,151,-43
3570689803,3312,68,16388,-115,105,-3
3570691510,3580,-4,16488,10,182,-73
3570693220,3940,392,16168,38,181,-35
3570694926,4904,248,16148,37,197,-108
3570696633,4212,1340,16448,-13,320,-217
3570698340,3120,692,16472,22,171,-35
3570700166,3128,780,16476,-1,116,-154
3570701897,3244,1132,16440,-82,49,28
3570703607,3576,112,16228,-28,160,44
3570705373,4020,28,16160,-2,28,-63
3570707142,4276,196,15848,5,25,-96
3570708885,3792,964,16388,-36,167,-67
3570710632,3516,800,16640,-26,124,-15
3570712333,4092,552,16064,-29,52,33
3570714032,4164,-84,16196,-9,141,8
3570715737,4260,-136,16288,168,213,-261
3570717441,3636,624,16512,10,74,-155
3570719141,3020,764,16036,40,63,-114
3570720913,3284,1876,16416,27,130,-18
3570722621,3864,1176,15960,-52,-2,95
3570724345,3696,884,16304,-41,14,34
3570726066,3804,572,16392,-47,38,54
3570727782,4180,520,16332,-10,51,-77
3570729500,3804,184,16268,-46,29,12
3570731240,3860,508,16384,-41,174,-143
3570732951,3928,636,16180,-10,133,-93
3570734670,4264,660,15884,11,55,-166
3570736385,3876,1448,16180,-42,115,-252
3570738096,3288,1372,16796,-40,126,-188
3570739805,3096,1248,16496,-40,-6,-22
3570741541,4048,904,16504,-99,-26,2
3570743253,4100,932,16500,-153,76,69
3570744970,3812,448,16424,-109,-21,90
3570746690,4300,652,15992,-57,-12,-78
3570748447,3992,896,16000,-136,132,-18
3570750185,3972,472,16192,-74,135,-94
3570751933,4088,944,15992,-97,39,-166
3570753653,4032,712,16220,-193,6,-10
3570755376,4176,152,16476,-143,187,-112
3570757100,3904,-116,16496,-35,60,-174
3570758817,3764,164,16220,-21,42,-307
3570760527,3744,1240,16424,-87,98,-171
3570762265,3832,796,16252,-27,-5,16
3570763990,3848,860,15936,-73,-27,-10
3570765755,4172,628,15860,-126,39,-17
3570767485,4600,1408,15604,-99,154,-36
3570769212,4724,836,15728,-175,89,114
3570770923,4704,160,15964,-165,140,56
3570772659,4024,-368,16256,-94,280,-71
3570774379,3660,-812,16536,31,167,-193
3570776102,3644,576,16568,35,121,-293
3570777822,3880,928,16568,12,134,-183
3570779540,4512,1572,15824,-6,194,-54
3570781250,4384,628,16208,-39,135,-60
3570782998,4164,892,16200,-50,175,-166
3570784723,3516,1252,16216,-90,160,-48
3570786441,3580,944,16096,-68,104,8
3570788158,3588,268,16400,-170,140,143
3570789875,3836,-324,16516,-64,153,123
3570791584,4824,252,16016,44,168,-142
3570793296,4600,220,16276,-27,276,-96
3570795026,3176,348,16424,67,338,-214
3570796756,2852,648,16540,63,214,-188
3570798503,3020,956,16300,38,11,-130
3570800243,3676,1088,16552,-64,147,54
3570801969,3900,592,16348,-19,111,110
3570803716,4396,540,16488,-42,57,-56
3570805432,3732,732,16096,-60,84,-116
3570807142,3772,1796,16660,-79,230,-55
3570809664,3928,332,15996,-52,24,187
3570811383,3672,-1264,15840,45,125,-15
3570813094,4196,-784,16036,299,191,-419
3570814806,4272,652,16576,227,171,-418
3570816503,3588,2188,15840,62,81,-65
3570818194,3736,2044,16412,-15,198,2
3570819888,4076,2220,16196,-58,134,-17
3570821580,3288,528,16232,-95,-59,183
3570823271,3108,104,16472,-30,111,-125
3570824963,3552,548,16564,-53,-37,53
3570826666,3764,504,16120,-68,-63,55
3570828373,4656,-96,15884,-57,47,49
3570830080,4792,-128,16264,59,203,-293
3570831789,3964,572,15924,108,108,-347
3570833497,2896,1592,15948,90,33,-356
3570835229,3140,2632,16628,-101,123,-63
3570836939,3964,1056,16084,-97,-33,272
3570838647,4388,152,16268,-109,41,91
3570840354,3876,544,16964,-149,43,-177
3570842060,3620,76,16288,-55,-66,-19
3570843767,3224,572,16204,23,-26,-183
3570845496,4012,1288,15768,-144,40,178
3570847203,4052,96,15980,-158,167,-51
3570848918,4812,856,15696,-61,14,-209
3570850639,4868,1208,15920,-123,38,-186
3570852352,4184,760,16036,-205,188,-28
3570854061,3748,-64,16580,-22,198,-275
3570855794,3340,544,16464,-34,86,-304
3570857504,3500,448,16636,-65,10,-76
3570859212,3464,876,16608,-9,39,-110
3570860919,4052,1256,15908,-79,-111,-13
3570862628,4300,1376,15576,-135,-61,16
3570864334,5112,1164,15260,-177,159,79
3570866065,4932,444,15568,-179,222,83
3570867777,4632,-160,15720,-162,192,64
3570869484,4024,-720,16024,-49,240,-160
3570871192,3452,-248,16776,50,237,-235
3570872900,3436,348,16868,24,96,-119
3570874607,3648,784,16500,22,92,-162
3570876338,4372,1480,16084,-15,166,-91
3570878047,4480,1124,16120,-21,106,-114
3570879756,4216,1284,16072,-45,85,-92
3570881463,3856,860,15896,-125,160,-51
3570883169,3400,724,15924,-85,185,18
3570884876,3932,364,16080,-98,71,84
3570886606,4032,120,16268,-103,90,90
3570888313,4688,-452,16228,22,241,-16
3570890022,4272,284,16592,103,301,-337
3570891730,3768,1012,16392,65,246,-295
3570893436,3040,856,16620,10,220,-46
3570895159,3120,1152,16384,-38,97,-71
3570896900,3772,764,15980,-96,49,48
3570898611,3880,472,16308,-77,156,-23
3570900330,4172,216,16492,-13,71,-5
3570902044,3476,720,16488,-35,25,-158
3570903753,3200,1104,16404,-78,112,-80
3570905468,3764,592,16332,2,80,106
3570907203,3960,-148,16492,29,71,59
3570908913,4404,-700,16208,134,231,-196
3570910633,4476,240,16180,167,286,-353
3570912359,3428,1352,16028,64,134,-73
3570914068,2740,1308,16468,20,81,-87
3570915787,3384,1592,16784,-37,43,89
3570917569,3744,992,16128,-32,-44,117
3570919266,3924,704,16212,-54,-14,-16
3570920977,4164,208,16240,-33,88,-4
3570922684,3952,484,16472,-25,105,-64
3570924383,3580,4,16420,27,21,-29
3570926083,3952,672,16188,0,70,-142
3570927836,4344,1040,15748,12,99,-107
3570929546,4448,1160,15764,28,141,-202
3570931266,3640,1444,16404,-40,107,-187
3570932975,2872,1160,16636,-17,43,-77
3570934692,3292,1220,16728,-69,-6,14
3570936411,4308,784,16200,-156,38,77
3570938149,3776,520,16428,-71,71,-45
3570939861,4156,612,15888,-8,-78,-59
3570941574,4220,788,15852,-39,-47,-89
3570943282,3648,808,16476,-183,190,-23
3570944995,3828,656,16120,-104,62,-116
3570946712,3920,956,15772,-174,-66,-12
3570948450,4296,348,15852,-182,52,35
3570950159,4516,244,16400,-84,203,-199
3570951866,3776,72,16336,-16,56,-190
3570953572,3500,356,16416,15,78,-307
3570955290,3668,1664,16680,-53,89,-151
3570957118,3952,1264,16228,-123,-72,85
3570959069,3888,232,16276,-161,29,84
3570960817,4428,488,15784,-56,146,-137
3570962515,4272,940,15984,-67,98,-146
3570964300,4596,892,15836,-153,34,75
3570966005,4372,-184,16196,-166,261,14
3570967697,3856,-860,16396,-13,182,-149
3570969385,3880,-508,16404,35,149,-276
3570971086,4004,776,16440,13,174,-217
3570972793,3944,1336,16104,15,207,-158
3570974513,3968,1620,16076,-32,146,-75
3570976235,4260,868,15976,-85,99,-13
3570977947,4208,880,16100,-49,207,-106
3570979656,3640,824,16168,-64,100,-14
3570982501,3596,828,16376,-158,129,126
3570984272,3860,-384,16352,-24,188,71
3570986012,4272,84,16468,33,146,-181
3570987733,4364,340,16036,2,242,-120
3570989520,4148,404,16236,18,316,-166
3570991229,3376,824,16472,8,183,-160
3570992928,3156,764,16448,-21,93,-149
3570994622,3420,944,16304,-24,158,6
3570996324,3576,536,16524,-13,87,75
3570998021,4016,600,16480,-21,6,-18
3570999737,3984,200,16228,-17,124,-33
3571001441,3892,568,16036,40,153,-106
3571003140,3972,1440,16312,-60,121,-46
3571004834,4296,968,15928,-70,93,89
3571006537,3876,-760,16100,83,174,57
3571008239,3760,-1320,16184,140,111,-120
3571009991,3644,256,16460,139,137,-392
3571011726,3324,1824,16024,113,160,-59
3571013452,3368,1996,16612,68,123,36
3571015164,4236,1944,16256,-123,35,47
3571016898,4040,984,16204,-118,76,11
3571018617,3636,384,16216,-26,59,14
3571020327,3332,-80,16576,-30,-13,10
3571022022,3328,476,16512,-77,49,-48
3571023701,3908,116,16184,32,84,2
3571025389,4512,436,15908,85,56,-68
3571027074,4628,460,16124,-1,71,-219
3571028755,3632,1792,16168,19,168,-319
3571030494,2632,1508,16912,-11,26,-63
3571032199,3136,1312,16468,-37,-43,16
3571033948,3840,676,16384,-141,-25,55
3571035687,3908,200,16800,-138,83,21
3571037406,4120,216,16276,-96,-32,-28
3571039119,4032,728,15660,-67,-75,-73
3571040896,3960,988,15888,-129,196,-76
3571042599,3824,716,16332,-143,132,-7
3571044306,3716,640,15812,-110,5,-134
3571046006,4152,1372,16128,-168,48,-100
3571047698,4512,556,16024,-106,140,-4
3571049389,4128,-80,16428,-74,101,-49
3571051140,3468,-468,16360,-27,47,-280
3571052849,3760,1248,16684,-19,115,-271
3571054574,3712,984,16432,-47,-37,118
3571056295,4060,796,15988,-78,-53,74
3571058009,4216,1032,15964,-174,50,-40
3571059718,4704,1300,15656,-90,146,-47
3571061451,4820,980,15880,-232,132,70
3571063161,4532,132,16008,-254,114,161
3571064879,3964,-1116,16312,-116,255,-64
3571066598,3660,-960,16456,71,133,-274
3571068324,3732,-480,16624,95,115,-331
3571070050,3984,1168,16348,77,190,-211
3571071790,4608,1760,15852,33,161,-29
3571073499,4136,1296,16004,-80,170,-66
3571075219,3736,1044,16444,-107,177,-130
3571076934,3604,1640,16304,-87,148,-41
3571078643,3348,636,16356,-161,40,190
3571080349,3568,168,16160,-160,71,163
3571082122,4132,-632,16124,-57,171,87
3571083826,5132,-404,15888,77,224,-175
3571085539,4212,488,16432,50,338,-253
3571087245,3420,568,16620,65,302,-195
3571088939,2616,1192,16540,51,163,-190
3571090632,3180,1324,16492,-23,40,-13
3571092378,3884,1576,16284,-63,174,28
3571094082,4152,1124,16468,-90,169,113
3571095792,3900,440,16260,-73,-5,-17
3571097503,3216,524,16564,-112,45,-45
3571099210,3360,508,16620,-78,102,-22
3571100918,4104,448,16100,-13,64,101
3571102651,4096,-1024,15932,59,68,16
3571104357,4348,-548,16264,163,264,-364
3571106065,4140,512,16312,174,204,-399
3571107771,3748,1684,16084,111,116,-116
3571109528,3348,2156,16292,-67,177,-27
3571111296,3656,1216,16436,-107,40,121
3571113120,3576,744,16380,-85,-38,67
3571114830,3600,16,16668,-48,-3,37
3571116537,3900,604,16392,-3,74,-91
3571118247,3904,652,16336,-30,19,14
3571119946,4108,376,15936,23,17,-62
3571121646,4152,328,16260,-1,150,-128
3571123346,3852,1212,15980,77,126,-322
3571125049,3652,1792,16040,37,100,-246
3571126757,3128,1552,16492,-78,69,-39
3571128465,3656,808,16392,-44,29,64
3571130169,4164,516,16388,-73,38,28
3571131875,4024,1004,16680,-124,40,-146
3571133608,3668,644,16464,-151,4,47
3571135313,4048,988,15608,-56,-17,-51
3571137022,3888,1056,16040,-125,3,-11
3571138732,3872,304,16112,-168,125,4
3571140440,4140,1076,15928,-67,55,-168
3571142151,4168,1096,15952,-115,-21,-41
3571143882,4340,144,16136,-119,80,-100
3571145592,4144,340,16424,-29,213,-273
3571147300,3768,1100,16272,-76,44,-215
3571149007,3724,1176,16340,-94,25,-96
3571150715,3676,860,16464,-106,82,-25
3571152423,3788,728,16208,-88,23,-49
3571154971,4128,516,15688,-92,-16,9
3571156690,4452,768,15868,-111,150,-29
3571158398,4568,584,15592,-140,73,45
3571160106,4712,516,15844,-168,128,-42
3571161812,4500,-112,16324,-118,266,-8
3571163527,3720,-448,16660,52,236,-264
3571165263,3544,448,16812,50,103,-231
3571166981,3700,848,16556,53,125,-219
3571168676,3944,1676,15984,27,194,-74
3571170369,4636,1100,15952,-52,94,-32
3571172066,4904,1304,16096,-91,139,-137
3571173757,4104,920,16020,-125,218,18
3571175458,3464,368,16156,-53,158,-32
3571177176,3440,256,16452,-89,102,16
3571178894,3456,72,16440,-83,171,49
3571180605,3980,196,16304,35,175,-59
3571182313,4684,296,16076,9,128,-115
3571184056,4884,628,16040,-35,238,-207
3571185811,3632,612,16196,-2,330,-131
3571187538,2972,740,16512,27,123,-196
3571189253,3100,1000,16576,-71,46,-25
3571190962,3208,704,16436,-60,107,53
3571192668,3976,172,16340,29,91,77
3571194384,4384,44,16492,6,20,-96
3571196129,3748,992,16496,-21,158,-108
3571197854,3420,1180,16332,12,137,-2
3571199564,3900,1072,16292,-77,94,33
3571201271,4024,-100,16012,-37,143,57
3571202982,3792,-748,15980,75,194,-35
3571204701,3980,-256,16384,147,82,-308
3571206443,3344,848,16260,47,36,-170
3571208161,3148,1768,16596,17,148,-14
3571209873,3732,1600,16164,-12,75,71
3571211580,4040,1580,16328,-77,34,-79
3571213291,3628,612,16280,-65,58,27
3571215011,3712,540,16212,4,103,7
3571216741,3528,404,16292,-76,19,-11
3571218511,3624,184,16316,-74,69,-57
3571220287,4204,552,16108,22,85,-31
3571222027,4592,192,15984,17,-6,54
3571223733,4108,680,16008,51,131,-382
3571225460,3156,1912,16584,0,160,-211
3571227265,3256,1352,16656,-41,-29,49
3571228970,3676,1072,16604,-107,-25,68
3571230671,4036,776,16496,-186,114,-30
3571232364,4136,396,16104,-114,-56,27
3571234055,4172,380,15700,-47,-25,-109
3571235758,4112,992,16016,-104,92,-149
3571237521,4012,808,16168,-126,157,-3
3571239234,3796,1036,16092,-88,7,-143
3571240950,4196,1428,16044,-126,33,-84
3571242658,4360,836,16044,-164,152,-49
3571244374,4100,156,16092,-90,90,-26
3571246095,3928,-248,16096,-34,95,-218
3571247833,3624,316,16516,-35,130,-324
3571249550,3580,872,16504,27,34,-70
3571251269,3984,944,16088,-87,-51,-27
3571252976,4172,796,15788,-161,74,-10
3571254693,4532,996,15612,-107,141,-87
3571256415,4764,1456,15756,-194,104,16
3571258154,4536,16,16124,-230,210,26
3571259867,4120,-316,16200,-176,276,-42
3571261577,3672,-1184,16568,-11,149,-95
3571263286,3720,-192,16356,94,164,-312
3571264999,4076,896,16216,101,229,-190
3571266713,4568,1628,15820,115,199,-160
3571268446,4720,1512,16180,-57,162,34
3571270155,3748,792,15984,-36,207,-106
3571271863,3328,1256,16548,-30,188,-149
3571273570,3288,1144,16220,-105,41,55
3571275288,3640,664,16448,-180,100,173
3571277010,4044,-864,16196,-81,116,146
3571278806,4948,-800,15792,4,156,-81
3571280511,4716,-96,16132,58,270,-238
3571282210,3472,348,16556,94,372,-320
3571283903,2712,1132,16580,41,169,-145
3571285610,2748,1268,16452,35,39,-125
3571287322,3484,1540,16252,-38,110,34
3571289081,4380,820,16440,-43,141,78
3571290787,4408,776,16484,-81,93,12
3571292497,3452,912,16336,-124,-12,-39
3571294218,3160,420,16652,-88,78,91
3571295926,4096,-288,16140,-13,44,110
3571297633,4184,-876,16144,60,62,50
3571299364,4348,-1044,16008,190,254,-276
3571301073,4076,720,16316,191,144,-383
3571302780,4044,1740,15796,133,109,-265
3571304486,3436,2340,16472,-47,188,-45
3571306192,3576,1768,16596,-86,160,32
3571307899,3124,360,16644,-95,-49,61
3571309607,3124,192,16504,-12,-54,-6
3571311312,3776,576,16388,-48,24,33
3571313017,4184,208,15960,-31,46,47
3571314736,4236,316,16084,-29,54,-59
3571316445,4348,392,16092,-8,86,-1
3571318151,3740,284,15780,91,136,-269
3571319880,3392,1780,16260,28,101,-292
3571321589,3280,1972,16472,-25,83,-175
3571323296,3960,1212,16240,-39,30,112
3571325001,4248,92,16964,-106,117,-201
3571327831,3396,408,16504,-191,-51,122
3571329578,3516,252,16136,-38,32,-62
3571331297,3972,1664,15808,-131,-1,44
3571332998,4092,180,15940,-174,55,81
3571334689,4112,128,16000,-88,116,-133
3571336382,4476,916,15960,-80,21,-117
3571338075,4316,604,16172,-132,71,-51
3571339783,4192,180,16152,-93,216,-146
3571341491,3772,236,16396,-20,176,-248
3571343198,3480,800,16628,-43,9,-198
3571344907,3668,872,16568,-91,28,-133
3571346615,3996,1080,16368,-91,70,-81
3571348322,3900,724,16092,-137,-14,17
3571350029,4476,736,15792,-149,4,-54
3571351761,4624,696,15752,-135,155,56
3571353472,4616,396,15568,-107,151,61
3571355179,4624,600,15936,-115,183,-83
3571356887,4000,-372,16408,-50,280,-57
3571358592,3692,-344,16672,66,266,-184
3571360304,3420,296,16800,14,111,-167
3571362045,3768,1056,16312,3,153,-197
3571363768,4160,1212,16168,-1,140,76
3571365488,4432,760,15992,-31,74,60
3571367199,4508,840,15912,-63,142,-192
3571368907,3604,764,15904,-70,197,-6
3571370615,3648,540,15944,-58,185,13
3571372321,3468,460,16280,-99,120,-4
3571374029,3784,216,16272,-81,174,-26
3571375779,4168,112,16196,31,193,-26
3571377560,4416,200,16276,39,172,-119
3571379346,4224,1240,16280,-29,220,-213
3571381114,3460,760,16236,8,251,-36
3571382954,2944,472,16188,4,101,-22
3571384688,3308,720,16020,-55,98,-116
3571386419,3564,920,16316,-27,132,-48
3571388163,4212,252,16464,24,60,95
3571389872,3984,212,16628,-9,52,-117
3571391596,3772,612,16492,-32,104,-130
3571393383,3680,1000,16568,11,138,-58
3571395144,4304,824,16160,-66,125,55
3571396900,3976,-544,15952,-6,149,-52
3571398626,3772,-16,16408,127,142,-222
3571400347,3776,0,16332,93,38,-163
3571402080,3196,1476,16216,83,89,-228
3571403898,3452,1496,16472,12,53,39
3571405651,4140,1556,16404,-21,-14,21
3571407425,4032,1192,16276,-63,2,73
3571409133,4108,840,16060,-40,150,-46
3571410797,3680,512,16388,-71,70,46
3571412451,3384,48,16308,-53,21,40
3571414167,3448,224,16512,-75,81,-138
3571415851,4148,644,15848,36,13,-43
3571417549,4620,516,15580,37,41,-25
3571419243,4148,988,16240,-7,180,-351
3571420938,2912,1676,16504,-41,90,-180
3571422631,3352,1204,16312,-85,-91,51
3571424356,3812,796,16416,-98,-50,57
3571426100,3996,656,16556,-178,109,-13
3571427836,4308,312,16108,-31,-69,-73
3571429555,4204,1268,15724,-70,8,-75
3571431263,4000,1088,15988,-157,95,67
3571432986,4028,616,16084,-130,184,-73
3571434780,3796,1056,16108,-141,11,-84
3571436483,4012,892,15908,-160,3,-12
3571438183,4040,300,16476,-137,170,-89
3571439883,3888,-52,16308,-40,33,-88
3571441575,3792,148,16432,-26,64,-330
3571443273,3712,856,16416,-45,99,-339
3571445000,3912,1000,16168,-28,7,-11
3571446703,3996,908,16000,-98,-51,42
3571448410,4264,720,15752,-159,2,22
3571450110,4320,1220,15724,-102,169,-149
3571451805,4752,1156,16024,-178,110,38
3571453522,4280,312,16280,-202,175,60
3571455297,4008,-504,16136,-176,242,73
3571457071,3740,-892,16360,44,203,-196
3571458817,3876,160,16396,62,106,-216
3571460526,4212,796,15856,75,234,-169
3571462222,4324,1100,16000,75,239,-167
3571463942,4224,1392,15984,-17,121,-49
3571465685,3660,1048,16228,-60,152,-125
3571467399,3472,1444,16356,-93,209,-89
3571469224,3628,1148,16144,-139,107,17
3571471054,3716,732,16308,-167,64,176
3571472801,4284,-812,16052,-31,173,-8
3571474514,4736,24,16104,4,235,-166
3571476300,4368,8,16092,29,248,-184
3571477992,3440,612,16272,70,333,-255
3571479678,3004,856,16372,50,139,-120
3571481361,3104,1192,16272,31,52,-159
3571483041,3468,1280,16420,-45,63,32
3571484721,4388,856,16368,2,183,40
3571486452,3852,1092,16428,-122,30,-29
3571488143,3436,940,16388,-121,0,6
3571489845,3492,604,16608,-103,122,80
3571491558,3872,-512,16240,-19,52,89
3571493268,4176,-928,15932,42,61,25
3571494975,4160,-1100,16112,171,202,-249
3571496707,3956,528,16200,225,143,-386
3571498417,3984,2440,16048,44,153,-131
3571500948,4204,2512,16336,-50,218,18
3571502662,2924,888,16680,-108,4,171
3571504371,2908,176,16340,-60,-80,89
3571506079,3268,712,17120,-64,-5,-41
3571507849,3828,472,16064,-60,1,140
3571509551,4512,132,16084,-33,16,27
3571511245,4844,0,15896,-10,60,-75
3571512937,4340,56,15972,55,158,-236
3571514628,3204,1056,15996,70,89,-343
3571516319,3016,1660,16288,24,79,-304
3571518067,2940,2088,16648,-131,67,-20
3571519783,4732,308,16040,-54,16,206
3571521497,3968,808,17024,-109,110,-391
3571523246,3404,1116,16848,-173,-51,-88
3571525033,3156,424,16432,-19,17,-66
3571526828,3888,1784,16120,-138,-15,102
3571528582,4232,304,15980,-218,33,84
3571530286,4364,224,15480,-127,125,2
3571531969,5000,404,15788,-35,32,-92
3571533676,3972,624,16112,-152,124,-176
3571535358,3972,96,16268,-55,220,-127
3571537039,3652,356,16420,5,202,-267
3571538716,3288,892,16752,-91,-8,-82
3571540421,3612,756,16668,-71,55,-220
3571542136,3632,1300,16596,-31,20,-154
3571543847,4204,956,15804,-114,-59,52
3571545556,4492,1136,15616,-176,76,5
3571547262,4884,932,15596,-172,127,92
3571548970,4868,268,15488,-110,134,47
3571550676,4592,-4,16240,-123,212,-78
3571552383,3624,52,16712,28,308,-202
3571554086,3432,304,16600,48,215,-132
3571555791,3356,32,16652,-7,81,-116
3571557503,3584,1044,16536,7,190,-225
3571559243,3880,1428,16436,23,152,-67
3571560955,4500,956,15840,-40,16,-58
3571562660,4796,1300,15720,-146,192,-115
3571564393,4044,764,15876,-73,235,-16
3571566124,3436,512,16004,-86,128,32
3571567837,3504,-332,16460,-109,136,-77
3571569626,3676,484,16452,-12,221,-56
3571571342,4172,220,16412,71,170,-17
3571573043,4384,524,16368,67,183,-178
3571574753,4032,1056,16720,-31,292,-178
3571576460,3504,1108,16600,3,174,-103
3571578154,3184,892,16472,-23,112,-20
3571579871,3208,280,16000,-59,122,5
3571581565,3392,544,16120,20,99,-36
3571583259,4152,268,16024,29,-2,68
3571584961,4428,280,16256,10,58,-29
3571586677,3744,540,16468,-40,169,-83
3571588383,3676,912,16448,10,71,-166
3571590146,3928,1188,16048,-27,38,-20
3571591860,4064,-204,16072,-22,221,-15
3571593577,3896,-160,16416,103,195,-187
3571595295,3408,228,16288,132,41,-187
3571597015,3032,800,16176,119,31,-268
3571598724,3412,1912,16740,11,99,-7
3571600459,4272,1840,16160,-82,6,96
3571602171,3720,480,16296,-87,32,129
3571603879,3672,-12,16392,-21,103,-13
3571605599,3740,648,16532,-25,36,-120
3571607358,3616,360,16168,-11,36,11
3571609197,3712,284,16304,-43,128,-59
3571610960,4056,352,15924,-8,21,-72
3571612732,4784,748,15900,-28,85,-229
3571614456,3452,976,16236,-3,177,-268
3571616173,2612,1420,16812,-35,-16,-122
3571617884,3200,1448,16404,-94,-89,14
3571619601,4408,1044,16380,-96,52,73
3571621342,3992,432,16632,-122,48,8
3571623051,4204,456,16248,-101,-93,-26
3571624762,3928,1264,15952,-84,-17,-76
3571626471,3940,512,16036,-129,127,148
3571628180,3832,364,16348,-116,111,-173
3571629892,3884,748,15928,-112,27,-209
3571631625,4208,692,16104,-101,67,-83
3571633340,4168,200,16504,-101,172,-80
3571635051,4020,-120,16604,-81,85,-118
3571636760,3552,752,16108,-34,86,-359
3571638467,3880,1144,16240,-52,57,-59
3571640179,3800,888,16492,-94,-16,-62
3571641913,3964,920,16192,-128,-51,-4
3571643620,4260,664,15840,-107,108,-45
3571645330,4480,1236,15708,-135,106,-39
3571647037,4740,1296,15968,-181,62,35
3571648743,4652,504,15944,-221,194,99
3571650452,4152,-1036,16352,-56,242,28
3571652187,3540,-848,16588,80,155,-375
3571653897,3652,64,16472,81,140,-392
3571655604,3860,1168,16236,71,203,-101
3571657311,4288,1336,15828,-20,159,-36
3571659017,4260,952,15860,-60,99,-23
3571660728,3936,1052,16320,-47,170,-183
3571662460,3852,836,16220,-67,100,-12
3571664171,3484,1012,16280,-132,100,-19
3571665879,3440,784,16288,-183,134,94
3571667632,4012,-432,16148,-15,155,63
3571669340,4856,-68,16004,29,190,-140
3571671046,4496,432,16044,13,348,-231
3571733800,3656,712,16652,-73,36,-145
3571735668,3444,748,17008,-118,64,-146
3571737426,3464,980,16696,-30,-12,-13
3571739161,4100,1076,15908,-95,-121,-25
3571740918,4724,1012,15808,-212,71,15
3571742632,5260,1168,15512,-181,174,53
3571744316,4888,252,15768,-171,206,180
3571746001,4296,-904,15972,-107,198,-54
3571747687,4032,-852,16196,-36,285,-215
3571749369,3480,120,16564,116,222,-259
3571751147,3468,532,16592,25,97,-126
3571752851,3860,1308,16412,-20,140,-153
3571754558,4068,1560,16132,-11,136,-98
3571756267,4380,1104,16012,-63,57,-40
3571757978,4372,960,15960,-130,140,-106
3571759686,3848,924,16004,-161,227,-101
3571761416,3420,452,16140,-102,150,83
3571763139,3804,60,16176,-60,84,-26
3571764867,4080,-36,16328,-33,204,-14
3571766584,4584,56,16204,47,288,-98
3571768303,4464,828,16452,54,248,-190
3571770012,3456,856,16520,-5,210,-131
3571771791,2932,936,16444,-1,225,-161
3571773538,3044,1304,16644,-7,78,-39
3571775375,3688,496,16412,-100,28,106
3571777171,4092,84,16412,-29,111,-6
3571778911,4056,376,16224,-4,15,-111
3571780617,3812,672,16272,-54,52,-105
3571782313,3668,644,16492,-20,234,-60
3571784055,3948,752,16172,16,51,31
3571785756,4016,76,16348,29,15,98
3571787437,4364,-552,16256,113,242,-252
3571789129,3960,876,16568,125,150,-251
3571790818,2784,1104,16640,59,57,-82
3571792574,2888,1544,16408,35,61,-72
3571794288,3536,1352,16492,-46,60,118
3571796036,3904,1084,16324,-42,6,13
3571797750,3980,424,16372,-46,19,42
3571799471,4088,468,16180,-24,80,-45
3571801188,3756,196,16756,-32,39,-6
3571802958,3680,544,16576,-25,52,-165
3571804682,3920,664,16128,-66,98,-84
3571806390,4212,720,15452,18,132,-147
3571808089,4152,1432,16324,-20,91,-242
3571809790,3132,1300,16560,-38,88,-157
3571811490,2864,1268,16608,-20,51,-103
3571813250,3832,892,16464,-88,-46,43
3571815003,4048,1060,16760,-158,11,-7
3571816715,3896,176,16520,-82,-18,101
3571818422,4320,308,15524,-34,-18,-29
3571820131,4024,1048,15756,-112,56,-67
3571821846,3732,336,16252,-107,142,-7
3571823587,4072,656,16076,-74,85,-154
3571825299,4056,984,15808,-156,-5,-61
3571827011,4208,348,16144,-141,180,-85
3571828725,4188,-60,16388,-58,91,-152
3571830436,3936,-140,16400,-11,58,-296
3571832150,3680,1252,16468,-74,72,-252
3571833889,4012,1208,16316,-33,81,23
3571835604,3780,1040,16328,-68,7,85
3571837316,3852,388,16032,-120,-28,-5
3571839031,4504,1176,16000,-101,167,-66
3571840741,4556,1044,15780,-156,91,105
3571842452,4652,536,15864,-174,93,89
3571844194,4300,-152,16076,-135,240,-45
3571845914,3916,-756,16428,15,244,-115
3571847626,3592,140,16524,35,151,-335
3571849339,3600,632,16508,19,98,-227
3571851048,4124,1560,16072,17,157,-136
3571852768,4592,1188,15828,-55,150,5
3571854485,4524,884,16120,-61,152,-141
3571856199,3792,1120,16420,-102,165,-42
3571857915,3372,760,16168,-42,115,-41
3571859667,3552,828,16572,-145,89,107
3571861458,3696,168,16456,-130,117,133
3571863213,4396,-48,16172,5,178,2
3571864939,4508,8,16000,30,189,-114
3571866641,3796,456,16296,33,351,-248
3571868326,3348,672,16228,53,306,-194
3571870008,2916,632,16456,40,75,-121
3571871686,3184,1140,16268,-49,138,-64
3571873363,3352,792,16580,-17,139,59
3571875101,4288,772,16336,1,51,-21
3571876804,3868,48,16396,-68,57,4
3571878512,3900,556,16208,-29,154,-156
3571880225,3476,1556,16368,-55,106,-26
3571881935,4000,568,16188,-69,32,62
3571883639,4076,-672,16068,40,190,35
3571885371,3616,-1432,16112,176,147,-84
3571887081,3976,132,16428,179,104,-382
3571888787,3128,1416,16140,64,97,-146
3571890493,3400,1944,16012,53,253,-62
3571892201,4052,2364,16012,-39,100,52
3571893908,3880,1036,16220,-104,-13,108
3571895640,3360,328,16228,-69,97,-44
3571897350,3548,144,16668,-52,52,-7
3571899055,3540,416,16300,-68,-12,-37
3571900763,3928,-12,16168,-48,60,11
3571902471,4428,72,15936,18,140,-93
3571904180,4588,340,16048,56,95,-157
3571906737,3256,2012,16280,-20,154,-319
3571908457,2936,2084,16648,-50,163,-175
3571910163,3760,1632,16304,-87,-13,155
3571911871,4300,280,16424,-147,55,77
3571913579,3888,152,16556,-116,37,-71
3571915325,4000,376,16208,-35,-54,-97
3571917074,3720,960,15764,-22,-73,-36
3571918782,4088,944,16104,-176,180,27
3571920464,3792,472,16268,-119,60,-99
3571922151,4144,1072,15892,-80,13,-181
3571923835,4316,928,16160,-212,27,-45
3571925517,4364,128,16468,-103,184,-76
3571927203,3904,-204,16340,-53,152,-175
3571928907,3584,56,16176,-1,43,-265
3571930616,3572,1112,16608,-41,121,-157
3571932471,3848,1216,16488,-51,-54,8
3571934267,3992,1396,16032,-91,-77,9
3571936111,4484,1008,15468,-201,46,45
3571937874,5356,1464,15636,-158,200,8
3571939579,4808,308,15952,-202,139,122
3571941264,4324,-600,16180,-187,155,91
3571942948,3712,-1160,16492,-21,276,-183
3571944630,3568,-308,16564,81,143,-301
3571946313,3648,272,16736,67,102,-280
3571948078,4104,1180,16312,54,182,-120
3571949788,4760,1812,16008,-13,176,-114
3571951500,4056,1300,16164,-68,101,-66
3571953212,3820,1308,16164,-89,132,-60
3571954922,3484,1020,16032,-122,171,11
3571956631,3572,544,16320,-124,68,65
3571958365,3768,488,16392,-138,56,134
3571960079,4668,-896,16044,-38,191,128
3571961790,4748,-364,16204,114,304,-314
3571963507,3828,876,16480,85,221,-286
3571965238,3212,892,16536,64,213,-175
3571966960,2948,1216,16532,5,216,-104
3571968753,3236,1340,16404,-53,37,-14
3571970455,3952,876,16304,-87,121,60
3571972147,4092,388,16492,-86,175,49
3571973838,3936,652,16396,-53,75,-139
3571975530,3296,420,16420,-87,-12,49
3571977222,3336,144,16428,-54,102,-11
3571978913,4140,336,16144,32,134,41
3571980622,4336,-620,15900,115,78,-44
3571982333,4464,236,16056,108,268,-301
3571984063,4080,664,16400,112,213,-232
3571985770,3040,1316,16584,59,124,-123
3571987473,3408,2016,16260,-41,36,36
3571989207,3520,1520,16500,-94,90,118
3571990920,3764,740,16404,-30,25,72
3571992626,3960,224,16508,-26,-42,-22
3571994333,4096,508,16236,-34,122,-28
3571996097,3916,144,16360,-8,127,-15
3571997814,3856,624,16288,29,28,-145
3571999547,4060,468,15924,-12,80,-93
3572001256,4120,680,15600,51,181,-221
3572002964,3984,1632,16384,21,144,-212
3572004669,3228,1408,16516,-48,17,-122
3572006375,3480,904,16512,-80,86,67
3572008114,3748,404,16612,-82,-2,53
3572009853,3732,660,16724,-142,-12,-63
3572011564,3732,504,16424,-98,-8,15
3572013274,4164,760,16188,-49,14,-48
3572014980,3904,868,15976,-117,43,-79
3572016688,3908,612,16060,-184,60,-63
3572018398,3896,916,16020,-129,43,-42
3572020131,4096,504,15988,-123,-10,37
3572021842,4508,396,16220,-142,78,-186
3572023550,4224,464,16484,-61,186,-171
3572025258,3820,712,16224,-12,89,-245
3572026965,3700,1080,16468,-55,61,-230
3572028672,3960,1484,16316,-146,92,-22
3572030403,3840,672,16000,-109,35,143
3572032112,3888,112,15996,-103,-16,86
3572033822,4184,504,15836,-107,89,-173
3572035529,4348,956,15888,-89,114,19
3572037237,4852,412,15904,-134,111,44
3572038952,4564,72,16244,-156,166,-13
3572040681,4164,-612,16228,-36,262,-160
3572042390,3808,240,16384,57,169,-252
3572044104,3948,640,16268,14,128,-190
3572045811,3876,1360,16208,-38,212,-160
3572047516,4016,1080,16100,-2,161,15
3572049232,4436,1080,15944,-62,124,-152
3572050965,4024,1052,16256,-123,178,-134
3572052674,3808,1156,16148,-86,172,20
3572054379,3636,360,16344,-116,89,144
3572056089,3416,-200,16368,-93,95,76
3572057798,3872,88,16356,-7,232,-119
3572059505,4168,380,16236,56,148,-37
3572061281,4328,528,16088,-33,250,-153
3572062976,3912,576,16296,-41,302,-176
3572064672,3612,700,16340,34,176,-153
3572066371,3116,908,16504,-29,70,-92
3572068066,3156,744,16392,-62,96,-48
3572069757,3644,920,16220,-22,118,0
3572071509,4048,84,16192,9,-23,66
3572073213,4244,632,16216,11,146,-191
3572074920,3484,936,16556,-32,170,-150
3572076630,3868,1604,16344,-24,128,-19
3572079469,3964,-648,16036,-16,130,74
3572081218,3644,-860,16664,158,187,-285
3572083005,3764,20,16104,166,137,-327
3572084707,3464,1312,16148,107,32,-141
3572086399,3640,1900,16512,-33,141,16
3572088094,4396,1424,16392,-81,59,-18
3572089782,3896,1364,16268,-73,54,-37
3572091472,3640,424,15968,-83,79,-2
3572093222,3452,592,16336,-30,96,-80
3572094926,3284,424,16616,-46,8,-8
3572096634,3684,76,16320,-23,-29,-49
3572098344,4420,396,16148,20,94,-43
3572100072,4776,848,15900,55,142,-258
3572101779,4284,1572,16012,10,149,-310
3572103510,2820,1452,16392,-42,85,-135
3572105218,3412,1196,16528,-42,44,1
3572106925,3712,956,16640,-73,-26,53
3572108632,4136,568,16752,-165,32,-39
3572110338,4372,484,16220,-110,-19,-5
3572112121,4084,752,15788,-65,8,-92
3572113888,3772,912,16056,-109,43,-76
3572115606,4180,596,16128,-149,198,-86
3572117317,3820,1356,15924,-127,46,-134
3572119028,4320,792,16152,-142,-31,-40
3572120734,4476,584,16352,-156,41,-101
3572122441,4104,-116,16444,-69,162,-42
3572124179,3956,268,16136,23,92,-337
3572125889,3828,988,16416,-26,47,-246
3572127596,3628,880,16236,-85,79,2
3572129306,3912,964,15992,-76,-17,-6
3572131034,4220,856,15840,-132,26,-7
3572132765,4532,1156,15636,-167,129,-94
3572134485,4860,1228,16116,-193,166,61
3572136198,4384,-244,16048,-180,111,57
3572137907,4000,-716,16216,-159,162,47
3572139613,3644,-1404,16332,42,256,-233
3572141324,3760,320,16376,124,133,-280
3572143028,4228,1084,16096,82,133,-147
3572144742,4512,1752,15736,40,238,-163
3572146459,4252,1392,16252,-48,192,-2
3572148171,3764,1596,16280,-67,103,-125
3572149882,3492,1536,16524,-145,120,-8
3572151593,3400,724,16032,-129,149,102
3572153301,3588,268,16448,-124,46,135
3572155034,4460,-812,15836,-42,122,70
3572156748,5144,-616,15784,28,261,-119
3572158458,4504,-12,16212,63,279,-241
3572160167,3460,724,16480,77,252,-311
3572161879,2996,1040,16516,37,250,-215
3572163587,3156,1352,16276,37,133,-131
3572165313,3500,1864,16328,-92,38,42
3572167029,4156,596,16604,-96,158,120
3572168725,4084,508,16400,-65,133,3
3572170419,3488,744,16332,-96,1,-60
3572172113,3640,720,16504,-109,92,79
3572173804,3884,156,16052,-63,109,157
3572175563,4060,-1248,15840,72,90,30
3572177270,4244,-688,16164,175,139,-337
3572178980,4040,1020,16288,216,204,-316
3572180689,4064,2012,15860,132,238,-208
3572182401,3204,2148,16324,-26,42,11
3572184143,3472,1728,16736,-133,122,51
3572185945,3540,60,16304,-34,-21,108
3572187707,3532,76,16600,-7,-37,-62
3572189411,3692,332,16548,-79,0,7
3572191111,4092,236,15876,24,62,27
3572192804,4248,432,15676,30,84,-69
3572194499,4304,196,16188,-4,18,-116
3572196271,3776,1052,15924,66,192,-266
3572197968,3428,1548,16180,43,109,-167
3572199673,3308,1636,16560,2,14,-178
3572201384,3876,1260,16172,-95,14,117
3572203091,4344,116,16924,-52,182,-137
3572204801,3860,972,16680,-99,100,-246
3572206609,3564,604,16336,-188,-97,59
3572208388,3852,1332,15904,-46,50,-41
